#
# Results on Tue, 16 Dec 2025 14:59:18 GMT
# USER AGENT: Mozilla/5.0 (Macintosh; Intel Mac OS X 10_15_7) AppleWebKit/537.36 (KHTML, like Gecko) Chrome/142.0.0.0 Safari/537.36
# Design number was non-random = 41
#
# Columns below this comment are as follows:
# 1. Results reception time.
# 2. MD5 hash of participant's IP address.
# 3. Controller name.
# 4. Order number of item.
# 5. Inner element number.
# 6. Label.
# 7. Latin Square Group.
# 8. PennElementType.
# 9. PennElementName.
# 10. Parameter.
# 11. Value.
# 12. EventTime.
# 13. Comments.
1765897158,24cd9c0aa9b9e63d665a1fdcb03c7e5b,PennController,2,0,consent,NULL,PennController,0,_Trial_,Start,1765896588768,NULL
1765897158,24cd9c0aa9b9e63d665a1fdcb03c7e5b,PennController,2,0,consent,NULL,PennController,0,_Trial_,End,1765896591243,NULL
1765897158,24cd9c0aa9b9e63d665a1fdcb03c7e5b,PennController,3,0,demographics,NULL,PennController,1,_Trial_,Start,1765896591251,NULL
1765897158,24cd9c0aa9b9e63d665a1fdcb03c7e5b,PennController,3,0,demographics,NULL,TextInput,alter,Final,31,1765896603839,NULL
1765897158,24cd9c0aa9b9e63d665a1fdcb03c7e5b,PennController,3,0,demographics,NULL,TextInput,alter,First,,1765896592998,3
1765897158,24cd9c0aa9b9e63d665a1fdcb03c7e5b,PennController,3,0,demographics,NULL,TextInput,andere_muttersprache,Final,Englisch,1765896603839,NULL
1765897158,24cd9c0aa9b9e63d665a1fdcb03c7e5b,PennController,3,0,demographics,NULL,TextInput,andere_muttersprache,First,,1765896597301,Shift
1765897158,24cd9c0aa9b9e63d665a1fdcb03c7e5b,PennController,3,0,demographics,NULL,TextInput,weitere_muttersprachen,Final,,1765896603839,NULL
1765897158,24cd9c0aa9b9e63d665a1fdcb03c7e5b,PennController,3,0,demographics,NULL,DropDown,geschlecht,Selected,Männlich,1765896594841,0
1765897158,24cd9c0aa9b9e63d665a1fdcb03c7e5b,PennController,3,0,demographics,NULL,DropDown,muttersprache_deutsch,Selected,Nein,1765896596747,1
1765897158,24cd9c0aa9b9e63d665a1fdcb03c7e5b,PennController,3,0,demographics,NULL,DropDown,mehrsprachig,Selected,Nein,1765896600365,1
1765897158,24cd9c0aa9b9e63d665a1fdcb03c7e5b,PennController,3,0,demographics,NULL,DropDown,sprachstoerung,Selected,Nein,1765896602220,1
1765897158,24cd9c0aa9b9e63d665a1fdcb03c7e5b,PennController,3,0,demographics,NULL,DropDown,germanistik_hintergrund,Selected,Nein,1765896603509,1
1765897158,24cd9c0aa9b9e63d665a1fdcb03c7e5b,PennController,3,0,demographics,NULL,PennController,1,_Trial_,End,1765896603839,NULL
1765897158,24cd9c0aa9b9e63d665a1fdcb03c7e5b,PennController,4,0,instructions,NULL,PennController,2,_Trial_,Start,1765896603846,NULL
1765897158,24cd9c0aa9b9e63d665a1fdcb03c7e5b,PennController,4,0,instructions,NULL,PennController,2,_Trial_,End,1765896604910,NULL
# 13. uebung.
# 14. itemNummer.
# 15. kontext.
# 16. bedingung.
# 17. anapherArt.
# 18. unterkategorie.
# 19. spezifikation.
# 20. anker.
# 21. anapher.
# 22. anapherIdx.
# 23. verstaendnisfrage.
# 24. erwarteteAntwort.
# 25. Comments.
1765897158,24cd9c0aa9b9e63d665a1fdcb03c7e5b,PennController,7,0,practice-trial,NULL,PennController,8,_Trial_,Start,1765896604917,TRUE,3,Krimi,,Ü,,,,,,Liegt Marlene noch immer im Krankenhaus?,,NULL
# 25. Reading time.
# 26. Newline?.
# 27. Sentence (or sentence MD5).
# 28. Comments.
1765897158,24cd9c0aa9b9e63d665a1fdcb03c7e5b,PennController,7,0,practice-trial,NULL,Controller-DashedSentence,DashedSentence_pt1,1,Marlene,1765896607170,TRUE,3,Krimi,,Ü,,,,,,Liegt Marlene noch immer im Krankenhaus?,,500,false,Marlene wurde letzte Woche angeschossen.,Any addtional parameters were appended as additional columns
1765897158,24cd9c0aa9b9e63d665a1fdcb03c7e5b,PennController,7,0,practice-trial,NULL,Controller-DashedSentence,DashedSentence_pt1,2,wurde,1765896607170,TRUE,3,Krimi,,Ü,,,,,,Liegt Marlene noch immer im Krankenhaus?,,82,false,Marlene wurde letzte Woche angeschossen.,Any addtional parameters were appended as additional columns
1765897158,24cd9c0aa9b9e63d665a1fdcb03c7e5b,PennController,7,0,practice-trial,NULL,Controller-DashedSentence,DashedSentence_pt1,3,letzte,1765896607170,TRUE,3,Krimi,,Ü,,,,,,Liegt Marlene noch immer im Krankenhaus?,,84,false,Marlene wurde letzte Woche angeschossen.,Any addtional parameters were appended as additional columns
1765897158,24cd9c0aa9b9e63d665a1fdcb03c7e5b,PennController,7,0,practice-trial,NULL,Controller-DashedSentence,DashedSentence_pt1,4,Woche,1765896607170,TRUE,3,Krimi,,Ü,,,,,,Liegt Marlene noch immer im Krankenhaus?,,84,false,Marlene wurde letzte Woche angeschossen.,Any addtional parameters were appended as additional columns
1765897158,24cd9c0aa9b9e63d665a1fdcb03c7e5b,PennController,7,0,practice-trial,NULL,Controller-DashedSentence,DashedSentence_pt1,5,angeschossen.,1765896607170,TRUE,3,Krimi,,Ü,,,,,,Liegt Marlene noch immer im Krankenhaus?,,84,false,Marlene wurde letzte Woche angeschossen.,Any addtional parameters were appended as additional columns
1765897158,24cd9c0aa9b9e63d665a1fdcb03c7e5b,PennController,7,0,practice-trial,NULL,Controller-DashedSentence,DashedSentence_pt2,1,Sie,1765896607756,TRUE,3,Krimi,,Ü,,,,,,Liegt Marlene noch immer im Krankenhaus?,,83,false,Sie liegt noch immer im Krankenhaus.,Any addtional parameters were appended as additional columns
1765897158,24cd9c0aa9b9e63d665a1fdcb03c7e5b,PennController,7,0,practice-trial,NULL,Controller-DashedSentence,DashedSentence_pt2,2,liegt,1765896607756,TRUE,3,Krimi,,Ü,,,,,,Liegt Marlene noch immer im Krankenhaus?,,83,false,Sie liegt noch immer im Krankenhaus.,Any addtional parameters were appended as additional columns
1765897158,24cd9c0aa9b9e63d665a1fdcb03c7e5b,PennController,7,0,practice-trial,NULL,Controller-DashedSentence,DashedSentence_pt2,3,noch,1765896607756,TRUE,3,Krimi,,Ü,,,,,,Liegt Marlene noch immer im Krankenhaus?,,84,false,Sie liegt noch immer im Krankenhaus.,Any addtional parameters were appended as additional columns
1765897158,24cd9c0aa9b9e63d665a1fdcb03c7e5b,PennController,7,0,practice-trial,NULL,Controller-DashedSentence,DashedSentence_pt2,4,immer,1765896607756,TRUE,3,Krimi,,Ü,,,,,,Liegt Marlene noch immer im Krankenhaus?,,83,false,Sie liegt noch immer im Krankenhaus.,Any addtional parameters were appended as additional columns
1765897158,24cd9c0aa9b9e63d665a1fdcb03c7e5b,PennController,7,0,practice-trial,NULL,Controller-DashedSentence,DashedSentence_pt2,5,im,1765896607756,TRUE,3,Krimi,,Ü,,,,,,Liegt Marlene noch immer im Krankenhaus?,,79,false,Sie liegt noch immer im Krankenhaus.,Any addtional parameters were appended as additional columns
1765897158,24cd9c0aa9b9e63d665a1fdcb03c7e5b,PennController,7,0,practice-trial,NULL,Controller-DashedSentence,DashedSentence_pt2,6,Krankenhaus.,1765896607756,TRUE,3,Krimi,,Ü,,,,,,Liegt Marlene noch immer im Krankenhaus?,,84,false,Sie liegt noch immer im Krankenhaus.,Any addtional parameters were appended as additional columns
# 25. Comments.
1765897158,24cd9c0aa9b9e63d665a1fdcb03c7e5b,PennController,7,0,practice-trial,NULL,Canvas,yes-no-responses,Print,NA,1765896607759,TRUE,3,Krimi,,Ü,,,,,,Liegt Marlene noch immer im Krankenhaus?,,NULL
1765897158,24cd9c0aa9b9e63d665a1fdcb03c7e5b,PennController,7,0,practice-trial,NULL,Selector,selection,Selection,nein,1765896608612,TRUE,3,Krimi,,Ü,,,,,,Liegt Marlene noch immer im Krankenhaus?,,ja;nein
1765897158,24cd9c0aa9b9e63d665a1fdcb03c7e5b,PennController,7,0,practice-trial,NULL,PennController,8,_Trial_,End,1765896608614,TRUE,3,Krimi,,Ü,,,,,,Liegt Marlene noch immer im Krankenhaus?,,NULL
1765897158,24cd9c0aa9b9e63d665a1fdcb03c7e5b,PennController,8,0,practice-trial,NULL,PennController,9,_Trial_,Start,1765896608620,TRUE,4,Krimi,,Ü,,,,,,Fährt Bernd mit der erlaubten Höchstgeschwindigkeit?,,NULL
# 25. Reading time.
# 26. Newline?.
# 27. Sentence (or sentence MD5).
# 28. Comments.
1765897158,24cd9c0aa9b9e63d665a1fdcb03c7e5b,PennController,8,0,practice-trial,NULL,Controller-DashedSentence,DashedSentence_pt1,1,Bernd,1765896610417,TRUE,4,Krimi,,Ü,,,,,,Fährt Bernd mit der erlaubten Höchstgeschwindigkeit?,,503,false,Bernd verfolgt einen Räuber mit seinem Auto.,Any addtional parameters were appended as additional columns
1765897158,24cd9c0aa9b9e63d665a1fdcb03c7e5b,PennController,8,0,practice-trial,NULL,Controller-DashedSentence,DashedSentence_pt1,2,verfolgt,1765896610417,TRUE,4,Krimi,,Ü,,,,,,Fährt Bernd mit der erlaubten Höchstgeschwindigkeit?,,85,false,Bernd verfolgt einen Räuber mit seinem Auto.,Any addtional parameters were appended as additional columns
1765897158,24cd9c0aa9b9e63d665a1fdcb03c7e5b,PennController,8,0,practice-trial,NULL,Controller-DashedSentence,DashedSentence_pt1,3,einen,1765896610417,TRUE,4,Krimi,,Ü,,,,,,Fährt Bernd mit der erlaubten Höchstgeschwindigkeit?,,83,false,Bernd verfolgt einen Räuber mit seinem Auto.,Any addtional parameters were appended as additional columns
1765897158,24cd9c0aa9b9e63d665a1fdcb03c7e5b,PennController,8,0,practice-trial,NULL,Controller-DashedSentence,DashedSentence_pt1,4,Räuber,1765896610417,TRUE,4,Krimi,,Ü,,,,,,Fährt Bernd mit der erlaubten Höchstgeschwindigkeit?,,83,false,Bernd verfolgt einen Räuber mit seinem Auto.,Any addtional parameters were appended as additional columns
1765897158,24cd9c0aa9b9e63d665a1fdcb03c7e5b,PennController,8,0,practice-trial,NULL,Controller-DashedSentence,DashedSentence_pt1,5,mit,1765896610417,TRUE,4,Krimi,,Ü,,,,,,Fährt Bernd mit der erlaubten Höchstgeschwindigkeit?,,83,false,Bernd verfolgt einen Räuber mit seinem Auto.,Any addtional parameters were appended as additional columns
1765897158,24cd9c0aa9b9e63d665a1fdcb03c7e5b,PennController,8,0,practice-trial,NULL,Controller-DashedSentence,DashedSentence_pt1,6,seinem,1765896610417,TRUE,4,Krimi,,Ü,,,,,,Fährt Bernd mit der erlaubten Höchstgeschwindigkeit?,,83,false,Bernd verfolgt einen Räuber mit seinem Auto.,Any addtional parameters were appended as additional columns
1765897158,24cd9c0aa9b9e63d665a1fdcb03c7e5b,PennController,8,0,practice-trial,NULL,Controller-DashedSentence,DashedSentence_pt1,7,Auto.,1765896610417,TRUE,4,Krimi,,Ü,,,,,,Fährt Bernd mit der erlaubten Höchstgeschwindigkeit?,,83,false,Bernd verfolgt einen Räuber mit seinem Auto.,Any addtional parameters were appended as additional columns
1765897158,24cd9c0aa9b9e63d665a1fdcb03c7e5b,PennController,8,0,practice-trial,NULL,Controller-DashedSentence,DashedSentence_pt2,1,Er,1765896611003,TRUE,4,Krimi,,Ü,,,,,,Fährt Bernd mit der erlaubten Höchstgeschwindigkeit?,,92,false,Er fährt deswegen schneller als erlaubt.,Any addtional parameters were appended as additional columns
1765897158,24cd9c0aa9b9e63d665a1fdcb03c7e5b,PennController,8,0,practice-trial,NULL,Controller-DashedSentence,DashedSentence_pt2,2,fährt,1765896611003,TRUE,4,Krimi,,Ü,,,,,,Fährt Bernd mit der erlaubten Höchstgeschwindigkeit?,,84,false,Er fährt deswegen schneller als erlaubt.,Any addtional parameters were appended as additional columns
1765897158,24cd9c0aa9b9e63d665a1fdcb03c7e5b,PennController,8,0,practice-trial,NULL,Controller-DashedSentence,DashedSentence_pt2,3,deswegen,1765896611003,TRUE,4,Krimi,,Ü,,,,,,Fährt Bernd mit der erlaubten Höchstgeschwindigkeit?,,83,false,Er fährt deswegen schneller als erlaubt.,Any addtional parameters were appended as additional columns
1765897158,24cd9c0aa9b9e63d665a1fdcb03c7e5b,PennController,8,0,practice-trial,NULL,Controller-DashedSentence,DashedSentence_pt2,4,schneller,1765896611003,TRUE,4,Krimi,,Ü,,,,,,Fährt Bernd mit der erlaubten Höchstgeschwindigkeit?,,76,false,Er fährt deswegen schneller als erlaubt.,Any addtional parameters were appended as additional columns
1765897158,24cd9c0aa9b9e63d665a1fdcb03c7e5b,PennController,8,0,practice-trial,NULL,Controller-DashedSentence,DashedSentence_pt2,5,als,1765896611003,TRUE,4,Krimi,,Ü,,,,,,Fährt Bernd mit der erlaubten Höchstgeschwindigkeit?,,84,false,Er fährt deswegen schneller als erlaubt.,Any addtional parameters were appended as additional columns
1765897158,24cd9c0aa9b9e63d665a1fdcb03c7e5b,PennController,8,0,practice-trial,NULL,Controller-DashedSentence,DashedSentence_pt2,6,erlaubt.,1765896611003,TRUE,4,Krimi,,Ü,,,,,,Fährt Bernd mit der erlaubten Höchstgeschwindigkeit?,,84,false,Er fährt deswegen schneller als erlaubt.,Any addtional parameters were appended as additional columns
# 25. Comments.
1765897158,24cd9c0aa9b9e63d665a1fdcb03c7e5b,PennController,8,0,practice-trial,NULL,Canvas,yes-no-responses,Print,NA,1765896611005,TRUE,4,Krimi,,Ü,,,,,,Fährt Bernd mit der erlaubten Höchstgeschwindigkeit?,,NULL
1765897158,24cd9c0aa9b9e63d665a1fdcb03c7e5b,PennController,8,0,practice-trial,NULL,Selector,selection,Selection,nein,1765896611752,TRUE,4,Krimi,,Ü,,,,,,Fährt Bernd mit der erlaubten Höchstgeschwindigkeit?,,ja;nein
1765897158,24cd9c0aa9b9e63d665a1fdcb03c7e5b,PennController,8,0,practice-trial,NULL,PennController,9,_Trial_,End,1765896611754,TRUE,4,Krimi,,Ü,,,,,,Fährt Bernd mit der erlaubten Höchstgeschwindigkeit?,,NULL
1765897158,24cd9c0aa9b9e63d665a1fdcb03c7e5b,PennController,5,0,practice-trial,NULL,PennController,6,_Trial_,Start,1765896611760,TRUE,1,Restaurant,,Ü,,,,,,Geht Tina heute in eine neue Bar?,,NULL
# 25. Reading time.
# 26. Newline?.
# 27. Sentence (or sentence MD5).
# 28. Comments.
1765897158,24cd9c0aa9b9e63d665a1fdcb03c7e5b,PennController,5,0,practice-trial,NULL,Controller-DashedSentence,DashedSentence_pt1,1,Tina,1765896613184,TRUE,1,Restaurant,,Ü,,,,,,Geht Tina heute in eine neue Bar?,,83,false,Tina geht heute mit ihrem Freund in ein neues Café.,Any addtional parameters were appended as additional columns
1765897158,24cd9c0aa9b9e63d665a1fdcb03c7e5b,PennController,5,0,practice-trial,NULL,Controller-DashedSentence,DashedSentence_pt1,2,geht,1765896613184,TRUE,1,Restaurant,,Ü,,,,,,Geht Tina heute in eine neue Bar?,,82,false,Tina geht heute mit ihrem Freund in ein neues Café.,Any addtional parameters were appended as additional columns
1765897158,24cd9c0aa9b9e63d665a1fdcb03c7e5b,PennController,5,0,practice-trial,NULL,Controller-DashedSentence,DashedSentence_pt1,3,heute,1765896613184,TRUE,1,Restaurant,,Ü,,,,,,Geht Tina heute in eine neue Bar?,,85,false,Tina geht heute mit ihrem Freund in ein neues Café.,Any addtional parameters were appended as additional columns
1765897158,24cd9c0aa9b9e63d665a1fdcb03c7e5b,PennController,5,0,practice-trial,NULL,Controller-DashedSentence,DashedSentence_pt1,4,mit,1765896613184,TRUE,1,Restaurant,,Ü,,,,,,Geht Tina heute in eine neue Bar?,,83,false,Tina geht heute mit ihrem Freund in ein neues Café.,Any addtional parameters were appended as additional columns
1765897158,24cd9c0aa9b9e63d665a1fdcb03c7e5b,PennController,5,0,practice-trial,NULL,Controller-DashedSentence,DashedSentence_pt1,5,ihrem,1765896613184,TRUE,1,Restaurant,,Ü,,,,,,Geht Tina heute in eine neue Bar?,,84,false,Tina geht heute mit ihrem Freund in ein neues Café.,Any addtional parameters were appended as additional columns
1765897158,24cd9c0aa9b9e63d665a1fdcb03c7e5b,PennController,5,0,practice-trial,NULL,Controller-DashedSentence,DashedSentence_pt1,6,Freund,1765896613184,TRUE,1,Restaurant,,Ü,,,,,,Geht Tina heute in eine neue Bar?,,84,false,Tina geht heute mit ihrem Freund in ein neues Café.,Any addtional parameters were appended as additional columns
1765897158,24cd9c0aa9b9e63d665a1fdcb03c7e5b,PennController,5,0,practice-trial,NULL,Controller-DashedSentence,DashedSentence_pt1,7,in,1765896613184,TRUE,1,Restaurant,,Ü,,,,,,Geht Tina heute in eine neue Bar?,,84,false,Tina geht heute mit ihrem Freund in ein neues Café.,Any addtional parameters were appended as additional columns
1765897158,24cd9c0aa9b9e63d665a1fdcb03c7e5b,PennController,5,0,practice-trial,NULL,Controller-DashedSentence,DashedSentence_pt1,8,ein,1765896613184,TRUE,1,Restaurant,,Ü,,,,,,Geht Tina heute in eine neue Bar?,,86,false,Tina geht heute mit ihrem Freund in ein neues Café.,Any addtional parameters were appended as additional columns
1765897158,24cd9c0aa9b9e63d665a1fdcb03c7e5b,PennController,5,0,practice-trial,NULL,Controller-DashedSentence,DashedSentence_pt1,9,neues,1765896613184,TRUE,1,Restaurant,,Ü,,,,,,Geht Tina heute in eine neue Bar?,,83,false,Tina geht heute mit ihrem Freund in ein neues Café.,Any addtional parameters were appended as additional columns
1765897158,24cd9c0aa9b9e63d665a1fdcb03c7e5b,PennController,5,0,practice-trial,NULL,Controller-DashedSentence,DashedSentence_pt1,10,Café.,1765896613184,TRUE,1,Restaurant,,Ü,,,,,,Geht Tina heute in eine neue Bar?,,83,false,Tina geht heute mit ihrem Freund in ein neues Café.,Any addtional parameters were appended as additional columns
1765897158,24cd9c0aa9b9e63d665a1fdcb03c7e5b,PennController,5,0,practice-trial,NULL,Controller-DashedSentence,DashedSentence_pt2,1,Sie,1765896613686,TRUE,1,Restaurant,,Ü,,,,,,Geht Tina heute in eine neue Bar?,,84,false,Sie freut sich schon sehr.,Any addtional parameters were appended as additional columns
1765897158,24cd9c0aa9b9e63d665a1fdcb03c7e5b,PennController,5,0,practice-trial,NULL,Controller-DashedSentence,DashedSentence_pt2,2,freut,1765896613686,TRUE,1,Restaurant,,Ü,,,,,,Geht Tina heute in eine neue Bar?,,84,false,Sie freut sich schon sehr.,Any addtional parameters were appended as additional columns
1765897158,24cd9c0aa9b9e63d665a1fdcb03c7e5b,PennController,5,0,practice-trial,NULL,Controller-DashedSentence,DashedSentence_pt2,3,sich,1765896613686,TRUE,1,Restaurant,,Ü,,,,,,Geht Tina heute in eine neue Bar?,,82,false,Sie freut sich schon sehr.,Any addtional parameters were appended as additional columns
1765897158,24cd9c0aa9b9e63d665a1fdcb03c7e5b,PennController,5,0,practice-trial,NULL,Controller-DashedSentence,DashedSentence_pt2,4,schon,1765896613686,TRUE,1,Restaurant,,Ü,,,,,,Geht Tina heute in eine neue Bar?,,85,false,Sie freut sich schon sehr.,Any addtional parameters were appended as additional columns
1765897158,24cd9c0aa9b9e63d665a1fdcb03c7e5b,PennController,5,0,practice-trial,NULL,Controller-DashedSentence,DashedSentence_pt2,5,sehr.,1765896613686,TRUE,1,Restaurant,,Ü,,,,,,Geht Tina heute in eine neue Bar?,,84,false,Sie freut sich schon sehr.,Any addtional parameters were appended as additional columns
# 25. Comments.
1765897158,24cd9c0aa9b9e63d665a1fdcb03c7e5b,PennController,5,0,practice-trial,NULL,Canvas,yes-no-responses,Print,NA,1765896613689,TRUE,1,Restaurant,,Ü,,,,,,Geht Tina heute in eine neue Bar?,,NULL
1765897158,24cd9c0aa9b9e63d665a1fdcb03c7e5b,PennController,5,0,practice-trial,NULL,Selector,selection,Selection,nein,1765896614357,TRUE,1,Restaurant,,Ü,,,,,,Geht Tina heute in eine neue Bar?,,ja;nein
1765897158,24cd9c0aa9b9e63d665a1fdcb03c7e5b,PennController,5,0,practice-trial,NULL,PennController,6,_Trial_,End,1765896614359,TRUE,1,Restaurant,,Ü,,,,,,Geht Tina heute in eine neue Bar?,,NULL
1765897158,24cd9c0aa9b9e63d665a1fdcb03c7e5b,PennController,6,0,practice-trial,NULL,PennController,7,_Trial_,Start,1765896614365,TRUE,2,Restaurant,,Ü,,,,,,Bestellt Richard fast täglich Essen?,,NULL
# 25. Reading time.
# 26. Newline?.
# 27. Sentence (or sentence MD5).
# 28. Comments.
1765897158,24cd9c0aa9b9e63d665a1fdcb03c7e5b,PennController,6,0,practice-trial,NULL,Controller-DashedSentence,DashedSentence_pt1,1,Richard,1765896615361,TRUE,2,Restaurant,,Ü,,,,,,Bestellt Richard fast täglich Essen?,,83,false,Richard bestellt fast jeden Tag Essen.,Any addtional parameters were appended as additional columns
1765897158,24cd9c0aa9b9e63d665a1fdcb03c7e5b,PennController,6,0,practice-trial,NULL,Controller-DashedSentence,DashedSentence_pt1,2,bestellt,1765896615361,TRUE,2,Restaurant,,Ü,,,,,,Bestellt Richard fast täglich Essen?,,84,false,Richard bestellt fast jeden Tag Essen.,Any addtional parameters were appended as additional columns
1765897158,24cd9c0aa9b9e63d665a1fdcb03c7e5b,PennController,6,0,practice-trial,NULL,Controller-DashedSentence,DashedSentence_pt1,3,fast,1765896615361,TRUE,2,Restaurant,,Ü,,,,,,Bestellt Richard fast täglich Essen?,,83,false,Richard bestellt fast jeden Tag Essen.,Any addtional parameters were appended as additional columns
1765897158,24cd9c0aa9b9e63d665a1fdcb03c7e5b,PennController,6,0,practice-trial,NULL,Controller-DashedSentence,DashedSentence_pt1,4,jeden,1765896615361,TRUE,2,Restaurant,,Ü,,,,,,Bestellt Richard fast täglich Essen?,,85,false,Richard bestellt fast jeden Tag Essen.,Any addtional parameters were appended as additional columns
1765897158,24cd9c0aa9b9e63d665a1fdcb03c7e5b,PennController,6,0,practice-trial,NULL,Controller-DashedSentence,DashedSentence_pt1,5,Tag,1765896615361,TRUE,2,Restaurant,,Ü,,,,,,Bestellt Richard fast täglich Essen?,,84,false,Richard bestellt fast jeden Tag Essen.,Any addtional parameters were appended as additional columns
1765897158,24cd9c0aa9b9e63d665a1fdcb03c7e5b,PennController,6,0,practice-trial,NULL,Controller-DashedSentence,DashedSentence_pt1,6,Essen.,1765896615361,TRUE,2,Restaurant,,Ü,,,,,,Bestellt Richard fast täglich Essen?,,84,false,Richard bestellt fast jeden Tag Essen.,Any addtional parameters were appended as additional columns
1765897158,24cd9c0aa9b9e63d665a1fdcb03c7e5b,PennController,6,0,practice-trial,NULL,Controller-DashedSentence,DashedSentence_pt2,1,Er,1765896615863,TRUE,2,Restaurant,,Ü,,,,,,Bestellt Richard fast täglich Essen?,,83,false,Er kann überhaupt nicht kochen.,Any addtional parameters were appended as additional columns
1765897158,24cd9c0aa9b9e63d665a1fdcb03c7e5b,PennController,6,0,practice-trial,NULL,Controller-DashedSentence,DashedSentence_pt2,2,kann,1765896615863,TRUE,2,Restaurant,,Ü,,,,,,Bestellt Richard fast täglich Essen?,,85,false,Er kann überhaupt nicht kochen.,Any addtional parameters were appended as additional columns
1765897158,24cd9c0aa9b9e63d665a1fdcb03c7e5b,PennController,6,0,practice-trial,NULL,Controller-DashedSentence,DashedSentence_pt2,3,überhaupt,1765896615863,TRUE,2,Restaurant,,Ü,,,,,,Bestellt Richard fast täglich Essen?,,83,false,Er kann überhaupt nicht kochen.,Any addtional parameters were appended as additional columns
1765897158,24cd9c0aa9b9e63d665a1fdcb03c7e5b,PennController,6,0,practice-trial,NULL,Controller-DashedSentence,DashedSentence_pt2,4,nicht,1765896615863,TRUE,2,Restaurant,,Ü,,,,,,Bestellt Richard fast täglich Essen?,,83,false,Er kann überhaupt nicht kochen.,Any addtional parameters were appended as additional columns
1765897158,24cd9c0aa9b9e63d665a1fdcb03c7e5b,PennController,6,0,practice-trial,NULL,Controller-DashedSentence,DashedSentence_pt2,5,kochen.,1765896615863,TRUE,2,Restaurant,,Ü,,,,,,Bestellt Richard fast täglich Essen?,,84,false,Er kann überhaupt nicht kochen.,Any addtional parameters were appended as additional columns
# 25. Comments.
1765897158,24cd9c0aa9b9e63d665a1fdcb03c7e5b,PennController,6,0,practice-trial,NULL,Canvas,yes-no-responses,Print,NA,1765896615865,TRUE,2,Restaurant,,Ü,,,,,,Bestellt Richard fast täglich Essen?,,NULL
1765897158,24cd9c0aa9b9e63d665a1fdcb03c7e5b,PennController,6,0,practice-trial,NULL,Selector,selection,Selection,nein,1765896616719,TRUE,2,Restaurant,,Ü,,,,,,Bestellt Richard fast täglich Essen?,,ja;nein
1765897158,24cd9c0aa9b9e63d665a1fdcb03c7e5b,PennController,6,0,practice-trial,NULL,PennController,7,_Trial_,End,1765896616720,TRUE,2,Restaurant,,Ü,,,,,,Bestellt Richard fast täglich Essen?,,NULL
# 13. Comments.
1765897158,24cd9c0aa9b9e63d665a1fdcb03c7e5b,PennController,9,0,practice-end,NULL,PennController,3,_Trial_,Start,1765896616726,NULL
1765897158,24cd9c0aa9b9e63d665a1fdcb03c7e5b,PennController,9,0,practice-end,NULL,PennController,3,_Trial_,End,1765896617329,NULL
# 13. uebung.
# 14. itemNummer.
# 15. block.
# 16. kontext.
# 17. bedingung.
# 18. anapherArt.
# 19. unterkategorie.
# 20. spezifikation.
# 21. anker.
# 22. anapher.
# 23. anapherIdx.
# 24. verstaendnisfrage.
# 25. erwarteteAntwort.
# 26. Comments.
1765897158,24cd9c0aa9b9e63d665a1fdcb03c7e5b,PennController,18,0,1I,NULL,PennController,18,_Trial_,Start,1765896617335,FALSE,48,1,Krimi,I,IA,Inferenzbasiert,,der Täter,die Maske,7,,,NULL
# 26. Reading time.
# 27. Newline?.
# 28. Sentence (or sentence MD5).
# 29. Comments.
1765897158,24cd9c0aa9b9e63d665a1fdcb03c7e5b,PennController,18,0,1I,NULL,Controller-DashedSentence,DashedSentence_pt1,1,Alfred,1765896618287,FALSE,48,1,Krimi,I,IA,Inferenzbasiert,,der Täter,die Maske,7,,,83,false,Alfred beobachtete den Täter.,Any addtional parameters were appended as additional columns
1765897158,24cd9c0aa9b9e63d665a1fdcb03c7e5b,PennController,18,0,1I,NULL,Controller-DashedSentence,DashedSentence_pt1,2,beobachtete,1765896618287,FALSE,48,1,Krimi,I,IA,Inferenzbasiert,,der Täter,die Maske,7,,,85,false,Alfred beobachtete den Täter.,Any addtional parameters were appended as additional columns
1765897158,24cd9c0aa9b9e63d665a1fdcb03c7e5b,PennController,18,0,1I,NULL,Controller-DashedSentence,DashedSentence_pt1,3,den,1765896618287,FALSE,48,1,Krimi,I,IA,Inferenzbasiert,,der Täter,die Maske,7,,,86,false,Alfred beobachtete den Täter.,Any addtional parameters were appended as additional columns
1765897158,24cd9c0aa9b9e63d665a1fdcb03c7e5b,PennController,18,0,1I,NULL,Controller-DashedSentence,DashedSentence_pt1,4,Täter.,1765896618287,FALSE,48,1,Krimi,I,IA,Inferenzbasiert,,der Täter,die Maske,7,,,82,false,Alfred beobachtete den Täter.,Any addtional parameters were appended as additional columns
1765897158,24cd9c0aa9b9e63d665a1fdcb03c7e5b,PennController,18,0,1I,NULL,Controller-DashedSentence,DashedSentence_pt2,1,Er,1765896618872,FALSE,48,1,Krimi,I,IA,Inferenzbasiert,,der Täter,die Maske,7,,,84,false,Er war von der Maske überaus beunruhigt.,Any addtional parameters were appended as additional columns
1765897158,24cd9c0aa9b9e63d665a1fdcb03c7e5b,PennController,18,0,1I,NULL,Controller-DashedSentence,DashedSentence_pt2,2,war,1765896618872,FALSE,48,1,Krimi,I,IA,Inferenzbasiert,,der Täter,die Maske,7,,,83,false,Er war von der Maske überaus beunruhigt.,Any addtional parameters were appended as additional columns
1765897158,24cd9c0aa9b9e63d665a1fdcb03c7e5b,PennController,18,0,1I,NULL,Controller-DashedSentence,DashedSentence_pt2,3,von,1765896618872,FALSE,48,1,Krimi,I,IA,Inferenzbasiert,,der Täter,die Maske,7,,,84,false,Er war von der Maske überaus beunruhigt.,Any addtional parameters were appended as additional columns
1765897158,24cd9c0aa9b9e63d665a1fdcb03c7e5b,PennController,18,0,1I,NULL,Controller-DashedSentence,DashedSentence_pt2,4,der Maske,1765896618872,FALSE,48,1,Krimi,I,IA,Inferenzbasiert,,der Täter,die Maske,7,,,84,false,Er war von der Maske überaus beunruhigt.,Any addtional parameters were appended as additional columns
1765897158,24cd9c0aa9b9e63d665a1fdcb03c7e5b,PennController,18,0,1I,NULL,Controller-DashedSentence,DashedSentence_pt2,5,überaus,1765896618872,FALSE,48,1,Krimi,I,IA,Inferenzbasiert,,der Täter,die Maske,7,,,86,false,Er war von der Maske überaus beunruhigt.,Any addtional parameters were appended as additional columns
1765897158,24cd9c0aa9b9e63d665a1fdcb03c7e5b,PennController,18,0,1I,NULL,Controller-DashedSentence,DashedSentence_pt2,6,beunruhigt.,1765896618872,FALSE,48,1,Krimi,I,IA,Inferenzbasiert,,der Täter,die Maske,7,,,80,false,Er war von der Maske überaus beunruhigt.,Any addtional parameters were appended as additional columns
# 26. Comments.
1765897158,24cd9c0aa9b9e63d665a1fdcb03c7e5b,PennController,18,0,1I,NULL,PennController,18,_Trial_,End,1765896618872,FALSE,48,1,Krimi,I,IA,Inferenzbasiert,,der Täter,die Maske,7,,,NULL
1765897158,24cd9c0aa9b9e63d665a1fdcb03c7e5b,PennController,21,0,1S,NULL,PennController,21,_Trial_,Start,1765896618875,FALSE,31,1,Krimi,S,DA,,,,die Toten,9,,,NULL
# 26. Reading time.
# 27. Newline?.
# 28. Sentence (or sentence MD5).
# 29. Comments.
1765897158,24cd9c0aa9b9e63d665a1fdcb03c7e5b,PennController,21,0,1S,NULL,Controller-DashedSentence,DashedSentence_pt1,1,Sandra,1765896619794,FALSE,31,1,Krimi,S,DA,,,,die Toten,9,,,83,false,Sandra untersucht jeden Tag Tote.,Any addtional parameters were appended as additional columns
1765897158,24cd9c0aa9b9e63d665a1fdcb03c7e5b,PennController,21,0,1S,NULL,Controller-DashedSentence,DashedSentence_pt1,2,untersucht,1765896619794,FALSE,31,1,Krimi,S,DA,,,,die Toten,9,,,84,false,Sandra untersucht jeden Tag Tote.,Any addtional parameters were appended as additional columns
1765897158,24cd9c0aa9b9e63d665a1fdcb03c7e5b,PennController,21,0,1S,NULL,Controller-DashedSentence,DashedSentence_pt1,3,jeden,1765896619794,FALSE,31,1,Krimi,S,DA,,,,die Toten,9,,,84,false,Sandra untersucht jeden Tag Tote.,Any addtional parameters were appended as additional columns
1765897158,24cd9c0aa9b9e63d665a1fdcb03c7e5b,PennController,21,0,1S,NULL,Controller-DashedSentence,DashedSentence_pt1,4,Tag,1765896619794,FALSE,31,1,Krimi,S,DA,,,,die Toten,9,,,84,false,Sandra untersucht jeden Tag Tote.,Any addtional parameters were appended as additional columns
1765897158,24cd9c0aa9b9e63d665a1fdcb03c7e5b,PennController,21,0,1S,NULL,Controller-DashedSentence,DashedSentence_pt1,5,Tote.,1765896619794,FALSE,31,1,Krimi,S,DA,,,,die Toten,9,,,84,false,Sandra untersucht jeden Tag Tote.,Any addtional parameters were appended as additional columns
1765897158,24cd9c0aa9b9e63d665a1fdcb03c7e5b,PennController,21,0,1S,NULL,Controller-DashedSentence,DashedSentence_pt2,1,Sie,1765896620462,FALSE,31,1,Krimi,S,DA,,,,die Toten,9,,,81,false,Sie hat sich an die Toten bereits gewöhnt.,Any addtional parameters were appended as additional columns
1765897158,24cd9c0aa9b9e63d665a1fdcb03c7e5b,PennController,21,0,1S,NULL,Controller-DashedSentence,DashedSentence_pt2,2,hat,1765896620462,FALSE,31,1,Krimi,S,DA,,,,die Toten,9,,,86,false,Sie hat sich an die Toten bereits gewöhnt.,Any addtional parameters were appended as additional columns
1765897158,24cd9c0aa9b9e63d665a1fdcb03c7e5b,PennController,21,0,1S,NULL,Controller-DashedSentence,DashedSentence_pt2,3,sich,1765896620462,FALSE,31,1,Krimi,S,DA,,,,die Toten,9,,,81,false,Sie hat sich an die Toten bereits gewöhnt.,Any addtional parameters were appended as additional columns
1765897158,24cd9c0aa9b9e63d665a1fdcb03c7e5b,PennController,21,0,1S,NULL,Controller-DashedSentence,DashedSentence_pt2,4,an,1765896620462,FALSE,31,1,Krimi,S,DA,,,,die Toten,9,,,83,false,Sie hat sich an die Toten bereits gewöhnt.,Any addtional parameters were appended as additional columns
1765897158,24cd9c0aa9b9e63d665a1fdcb03c7e5b,PennController,21,0,1S,NULL,Controller-DashedSentence,DashedSentence_pt2,5,die Toten,1765896620462,FALSE,31,1,Krimi,S,DA,,,,die Toten,9,,,85,false,Sie hat sich an die Toten bereits gewöhnt.,Any addtional parameters were appended as additional columns
1765897158,24cd9c0aa9b9e63d665a1fdcb03c7e5b,PennController,21,0,1S,NULL,Controller-DashedSentence,DashedSentence_pt2,6,bereits,1765896620462,FALSE,31,1,Krimi,S,DA,,,,die Toten,9,,,83,false,Sie hat sich an die Toten bereits gewöhnt.,Any addtional parameters were appended as additional columns
1765897158,24cd9c0aa9b9e63d665a1fdcb03c7e5b,PennController,21,0,1S,NULL,Controller-DashedSentence,DashedSentence_pt2,7,gewöhnt.,1765896620462,FALSE,31,1,Krimi,S,DA,,,,die Toten,9,,,84,false,Sie hat sich an die Toten bereits gewöhnt.,Any addtional parameters were appended as additional columns
# 26. Comments.
1765897158,24cd9c0aa9b9e63d665a1fdcb03c7e5b,PennController,21,0,1S,NULL,PennController,21,_Trial_,End,1765896620464,FALSE,31,1,Krimi,S,DA,,,,die Toten,9,,,NULL
1765897158,24cd9c0aa9b9e63d665a1fdcb03c7e5b,PennController,13,0,1V,NULL,PennController,13,_Trial_,Start,1765896620470,FALSE,11,1,Krimi,V,IA,Verbsemantisch-basiert,Objekt,töten,die Leiche,7,Hat Luisa die Leiche im Garten vergraben?,Nein,NULL
# 26. Reading time.
# 27. Newline?.
# 28. Sentence (or sentence MD5).
# 29. Comments.
1765897158,24cd9c0aa9b9e63d665a1fdcb03c7e5b,PennController,13,0,1V,NULL,Controller-DashedSentence,DashedSentence_pt1,1,Luisa,1765896621385,FALSE,11,1,Krimi,V,IA,Verbsemantisch-basiert,Objekt,töten,die Leiche,7,Hat Luisa die Leiche im Garten vergraben?,Nein,83,false,Luisa hat aus Rache getötet.,Any addtional parameters were appended as additional columns
1765897158,24cd9c0aa9b9e63d665a1fdcb03c7e5b,PennController,13,0,1V,NULL,Controller-DashedSentence,DashedSentence_pt1,2,hat,1765896621385,FALSE,11,1,Krimi,V,IA,Verbsemantisch-basiert,Objekt,töten,die Leiche,7,Hat Luisa die Leiche im Garten vergraben?,Nein,83,false,Luisa hat aus Rache getötet.,Any addtional parameters were appended as additional columns
1765897158,24cd9c0aa9b9e63d665a1fdcb03c7e5b,PennController,13,0,1V,NULL,Controller-DashedSentence,DashedSentence_pt1,3,aus,1765896621385,FALSE,11,1,Krimi,V,IA,Verbsemantisch-basiert,Objekt,töten,die Leiche,7,Hat Luisa die Leiche im Garten vergraben?,Nein,84,false,Luisa hat aus Rache getötet.,Any addtional parameters were appended as additional columns
1765897158,24cd9c0aa9b9e63d665a1fdcb03c7e5b,PennController,13,0,1V,NULL,Controller-DashedSentence,DashedSentence_pt1,4,Rache,1765896621385,FALSE,11,1,Krimi,V,IA,Verbsemantisch-basiert,Objekt,töten,die Leiche,7,Hat Luisa die Leiche im Garten vergraben?,Nein,83,false,Luisa hat aus Rache getötet.,Any addtional parameters were appended as additional columns
1765897158,24cd9c0aa9b9e63d665a1fdcb03c7e5b,PennController,13,0,1V,NULL,Controller-DashedSentence,DashedSentence_pt1,5,getötet.,1765896621385,FALSE,11,1,Krimi,V,IA,Verbsemantisch-basiert,Objekt,töten,die Leiche,7,Hat Luisa die Leiche im Garten vergraben?,Nein,85,false,Luisa hat aus Rache getötet.,Any addtional parameters were appended as additional columns
1765897158,24cd9c0aa9b9e63d665a1fdcb03c7e5b,PennController,13,0,1V,NULL,Controller-DashedSentence,DashedSentence_pt2,1,Sie,1765896621970,FALSE,11,1,Krimi,V,IA,Verbsemantisch-basiert,Objekt,töten,die Leiche,7,Hat Luisa die Leiche im Garten vergraben?,Nein,83,false,Sie hat die Leiche im Wald vergraben.,Any addtional parameters were appended as additional columns
1765897158,24cd9c0aa9b9e63d665a1fdcb03c7e5b,PennController,13,0,1V,NULL,Controller-DashedSentence,DashedSentence_pt2,2,hat,1765896621970,FALSE,11,1,Krimi,V,IA,Verbsemantisch-basiert,Objekt,töten,die Leiche,7,Hat Luisa die Leiche im Garten vergraben?,Nein,84,false,Sie hat die Leiche im Wald vergraben.,Any addtional parameters were appended as additional columns
1765897158,24cd9c0aa9b9e63d665a1fdcb03c7e5b,PennController,13,0,1V,NULL,Controller-DashedSentence,DashedSentence_pt2,3,die Leiche,1765896621970,FALSE,11,1,Krimi,V,IA,Verbsemantisch-basiert,Objekt,töten,die Leiche,7,Hat Luisa die Leiche im Garten vergraben?,Nein,85,false,Sie hat die Leiche im Wald vergraben.,Any addtional parameters were appended as additional columns
1765897158,24cd9c0aa9b9e63d665a1fdcb03c7e5b,PennController,13,0,1V,NULL,Controller-DashedSentence,DashedSentence_pt2,4,im,1765896621970,FALSE,11,1,Krimi,V,IA,Verbsemantisch-basiert,Objekt,töten,die Leiche,7,Hat Luisa die Leiche im Garten vergraben?,Nein,82,false,Sie hat die Leiche im Wald vergraben.,Any addtional parameters were appended as additional columns
1765897158,24cd9c0aa9b9e63d665a1fdcb03c7e5b,PennController,13,0,1V,NULL,Controller-DashedSentence,DashedSentence_pt2,5,Wald,1765896621970,FALSE,11,1,Krimi,V,IA,Verbsemantisch-basiert,Objekt,töten,die Leiche,7,Hat Luisa die Leiche im Garten vergraben?,Nein,84,false,Sie hat die Leiche im Wald vergraben.,Any addtional parameters were appended as additional columns
1765897158,24cd9c0aa9b9e63d665a1fdcb03c7e5b,PennController,13,0,1V,NULL,Controller-DashedSentence,DashedSentence_pt2,6,vergraben.,1765896621970,FALSE,11,1,Krimi,V,IA,Verbsemantisch-basiert,Objekt,töten,die Leiche,7,Hat Luisa die Leiche im Garten vergraben?,Nein,84,false,Sie hat die Leiche im Wald vergraben.,Any addtional parameters were appended as additional columns
# 26. Comments.
1765897158,24cd9c0aa9b9e63d665a1fdcb03c7e5b,PennController,13,0,1V,NULL,Canvas,yes-no-responses,Print,NA,1765896621973,FALSE,11,1,Krimi,V,IA,Verbsemantisch-basiert,Objekt,töten,die Leiche,7,Hat Luisa die Leiche im Garten vergraben?,Nein,NULL
1765897158,24cd9c0aa9b9e63d665a1fdcb03c7e5b,PennController,13,0,1V,NULL,Var,QuestionStartTime,Final,1765896621975,1765896622753,FALSE,11,1,Krimi,V,IA,Verbsemantisch-basiert,Objekt,töten,die Leiche,7,Hat Luisa die Leiche im Garten vergraben?,Nein,Value at the end of the trial
1765897158,24cd9c0aa9b9e63d665a1fdcb03c7e5b,PennController,13,0,1V,NULL,Var,QuestionEndTime,Final,1765896622752,1765896622753,FALSE,11,1,Krimi,V,IA,Verbsemantisch-basiert,Objekt,töten,die Leiche,7,Hat Luisa die Leiche im Garten vergraben?,Nein,Value at the end of the trial
1765897158,24cd9c0aa9b9e63d665a1fdcb03c7e5b,PennController,13,0,1V,NULL,Selector,selection,Selection,nein,1765896622751,FALSE,11,1,Krimi,V,IA,Verbsemantisch-basiert,Objekt,töten,die Leiche,7,Hat Luisa die Leiche im Garten vergraben?,Nein,ja;nein
1765897158,24cd9c0aa9b9e63d665a1fdcb03c7e5b,PennController,13,0,1V,NULL,PennController,13,_Trial_,End,1765896622753,FALSE,11,1,Krimi,V,IA,Verbsemantisch-basiert,Objekt,töten,die Leiche,7,Hat Luisa die Leiche im Garten vergraben?,Nein,NULL
1765897158,24cd9c0aa9b9e63d665a1fdcb03c7e5b,PennController,20,0,1M,NULL,PennController,20,_Trial_,Start,1765896622760,FALSE,13,1,Restaurant,M,IA,Meronymie-basiert,Objekt/Material,der Kuchen,die Glasur,10,,,NULL
# 26. Reading time.
# 27. Newline?.
# 28. Sentence (or sentence MD5).
# 29. Comments.
1765897158,24cd9c0aa9b9e63d665a1fdcb03c7e5b,PennController,20,0,1M,NULL,Controller-DashedSentence,DashedSentence_pt1,1,Melissa,1765896623979,FALSE,13,1,Restaurant,M,IA,Meronymie-basiert,Objekt/Material,der Kuchen,die Glasur,10,,,85,false,Melissa backt für ihre Party selbst den Kuchen.,Any addtional parameters were appended as additional columns
1765897158,24cd9c0aa9b9e63d665a1fdcb03c7e5b,PennController,20,0,1M,NULL,Controller-DashedSentence,DashedSentence_pt1,2,backt,1765896623979,FALSE,13,1,Restaurant,M,IA,Meronymie-basiert,Objekt/Material,der Kuchen,die Glasur,10,,,83,false,Melissa backt für ihre Party selbst den Kuchen.,Any addtional parameters were appended as additional columns
1765897158,24cd9c0aa9b9e63d665a1fdcb03c7e5b,PennController,20,0,1M,NULL,Controller-DashedSentence,DashedSentence_pt1,3,für,1765896623979,FALSE,13,1,Restaurant,M,IA,Meronymie-basiert,Objekt/Material,der Kuchen,die Glasur,10,,,83,false,Melissa backt für ihre Party selbst den Kuchen.,Any addtional parameters were appended as additional columns
1765897158,24cd9c0aa9b9e63d665a1fdcb03c7e5b,PennController,20,0,1M,NULL,Controller-DashedSentence,DashedSentence_pt1,4,ihre,1765896623979,FALSE,13,1,Restaurant,M,IA,Meronymie-basiert,Objekt/Material,der Kuchen,die Glasur,10,,,84,false,Melissa backt für ihre Party selbst den Kuchen.,Any addtional parameters were appended as additional columns
1765897158,24cd9c0aa9b9e63d665a1fdcb03c7e5b,PennController,20,0,1M,NULL,Controller-DashedSentence,DashedSentence_pt1,5,Party,1765896623979,FALSE,13,1,Restaurant,M,IA,Meronymie-basiert,Objekt/Material,der Kuchen,die Glasur,10,,,83,false,Melissa backt für ihre Party selbst den Kuchen.,Any addtional parameters were appended as additional columns
1765897158,24cd9c0aa9b9e63d665a1fdcb03c7e5b,PennController,20,0,1M,NULL,Controller-DashedSentence,DashedSentence_pt1,6,selbst,1765896623979,FALSE,13,1,Restaurant,M,IA,Meronymie-basiert,Objekt/Material,der Kuchen,die Glasur,10,,,83,false,Melissa backt für ihre Party selbst den Kuchen.,Any addtional parameters were appended as additional columns
1765897158,24cd9c0aa9b9e63d665a1fdcb03c7e5b,PennController,20,0,1M,NULL,Controller-DashedSentence,DashedSentence_pt1,7,den,1765896623979,FALSE,13,1,Restaurant,M,IA,Meronymie-basiert,Objekt/Material,der Kuchen,die Glasur,10,,,84,false,Melissa backt für ihre Party selbst den Kuchen.,Any addtional parameters were appended as additional columns
1765897158,24cd9c0aa9b9e63d665a1fdcb03c7e5b,PennController,20,0,1M,NULL,Controller-DashedSentence,DashedSentence_pt1,8,Kuchen.,1765896623979,FALSE,13,1,Restaurant,M,IA,Meronymie-basiert,Objekt/Material,der Kuchen,die Glasur,10,,,83,false,Melissa backt für ihre Party selbst den Kuchen.,Any addtional parameters were appended as additional columns
1765897158,24cd9c0aa9b9e63d665a1fdcb03c7e5b,PennController,20,0,1M,NULL,Controller-DashedSentence,DashedSentence_pt2,1,Sie,1765896624484,FALSE,13,1,Restaurant,M,IA,Meronymie-basiert,Objekt/Material,der Kuchen,die Glasur,10,,,83,false,Sie färbt die Glasur ausnahmsweise pink.,Any addtional parameters were appended as additional columns
1765897158,24cd9c0aa9b9e63d665a1fdcb03c7e5b,PennController,20,0,1M,NULL,Controller-DashedSentence,DashedSentence_pt2,2,färbt,1765896624484,FALSE,13,1,Restaurant,M,IA,Meronymie-basiert,Objekt/Material,der Kuchen,die Glasur,10,,,83,false,Sie färbt die Glasur ausnahmsweise pink.,Any addtional parameters were appended as additional columns
1765897158,24cd9c0aa9b9e63d665a1fdcb03c7e5b,PennController,20,0,1M,NULL,Controller-DashedSentence,DashedSentence_pt2,3,die Glasur,1765896624484,FALSE,13,1,Restaurant,M,IA,Meronymie-basiert,Objekt/Material,der Kuchen,die Glasur,10,,,84,false,Sie färbt die Glasur ausnahmsweise pink.,Any addtional parameters were appended as additional columns
1765897158,24cd9c0aa9b9e63d665a1fdcb03c7e5b,PennController,20,0,1M,NULL,Controller-DashedSentence,DashedSentence_pt2,4,ausnahmsweise,1765896624484,FALSE,13,1,Restaurant,M,IA,Meronymie-basiert,Objekt/Material,der Kuchen,die Glasur,10,,,86,false,Sie färbt die Glasur ausnahmsweise pink.,Any addtional parameters were appended as additional columns
1765897158,24cd9c0aa9b9e63d665a1fdcb03c7e5b,PennController,20,0,1M,NULL,Controller-DashedSentence,DashedSentence_pt2,5,pink.,1765896624484,FALSE,13,1,Restaurant,M,IA,Meronymie-basiert,Objekt/Material,der Kuchen,die Glasur,10,,,84,false,Sie färbt die Glasur ausnahmsweise pink.,Any addtional parameters were appended as additional columns
# 26. Comments.
1765897158,24cd9c0aa9b9e63d665a1fdcb03c7e5b,PennController,20,0,1M,NULL,PennController,20,_Trial_,End,1765896624486,FALSE,13,1,Restaurant,M,IA,Meronymie-basiert,Objekt/Material,der Kuchen,die Glasur,10,,,NULL
1765897158,24cd9c0aa9b9e63d665a1fdcb03c7e5b,PennController,15,0,1I,NULL,PennController,15,_Trial_,Start,1765896624493,FALSE,41,1,Restaurant,I,IA,Inferenzbasiert,,der Wein,der Fleck,6,Mochte Peter den Wein?,Ja,NULL
# 26. Reading time.
# 27. Newline?.
# 28. Sentence (or sentence MD5).
# 29. Comments.
1765897158,24cd9c0aa9b9e63d665a1fdcb03c7e5b,PennController,15,0,1I,NULL,Controller-DashedSentence,DashedSentence_pt1,1,Peter,1765896625236,FALSE,41,1,Restaurant,I,IA,Inferenzbasiert,,der Wein,der Fleck,6,Mochte Peter den Wein?,Ja,77,false,Peter genoss den Wein.,Any addtional parameters were appended as additional columns
1765897158,24cd9c0aa9b9e63d665a1fdcb03c7e5b,PennController,15,0,1I,NULL,Controller-DashedSentence,DashedSentence_pt1,2,genoss,1765896625236,FALSE,41,1,Restaurant,I,IA,Inferenzbasiert,,der Wein,der Fleck,6,Mochte Peter den Wein?,Ja,83,false,Peter genoss den Wein.,Any addtional parameters were appended as additional columns
1765897158,24cd9c0aa9b9e63d665a1fdcb03c7e5b,PennController,15,0,1I,NULL,Controller-DashedSentence,DashedSentence_pt1,3,den,1765896625236,FALSE,41,1,Restaurant,I,IA,Inferenzbasiert,,der Wein,der Fleck,6,Mochte Peter den Wein?,Ja,85,false,Peter genoss den Wein.,Any addtional parameters were appended as additional columns
1765897158,24cd9c0aa9b9e63d665a1fdcb03c7e5b,PennController,15,0,1I,NULL,Controller-DashedSentence,DashedSentence_pt1,4,Wein.,1765896625236,FALSE,41,1,Restaurant,I,IA,Inferenzbasiert,,der Wein,der Fleck,6,Mochte Peter den Wein?,Ja,83,false,Peter genoss den Wein.,Any addtional parameters were appended as additional columns
1765897158,24cd9c0aa9b9e63d665a1fdcb03c7e5b,PennController,15,0,1I,NULL,Controller-DashedSentence,DashedSentence_pt2,1,Aber,1765896626242,FALSE,41,1,Restaurant,I,IA,Inferenzbasiert,,der Wein,der Fleck,6,Mochte Peter den Wein?,Ja,84,false,Aber auf den Fleck auf seinem Teppich hätte er gut verzichten können.,Any addtional parameters were appended as additional columns
1765897158,24cd9c0aa9b9e63d665a1fdcb03c7e5b,PennController,15,0,1I,NULL,Controller-DashedSentence,DashedSentence_pt2,2,auf,1765896626242,FALSE,41,1,Restaurant,I,IA,Inferenzbasiert,,der Wein,der Fleck,6,Mochte Peter den Wein?,Ja,84,false,Aber auf den Fleck auf seinem Teppich hätte er gut verzichten können.,Any addtional parameters were appended as additional columns
1765897158,24cd9c0aa9b9e63d665a1fdcb03c7e5b,PennController,15,0,1I,NULL,Controller-DashedSentence,DashedSentence_pt2,3,den Fleck,1765896626242,FALSE,41,1,Restaurant,I,IA,Inferenzbasiert,,der Wein,der Fleck,6,Mochte Peter den Wein?,Ja,84,false,Aber auf den Fleck auf seinem Teppich hätte er gut verzichten können.,Any addtional parameters were appended as additional columns
1765897158,24cd9c0aa9b9e63d665a1fdcb03c7e5b,PennController,15,0,1I,NULL,Controller-DashedSentence,DashedSentence_pt2,4,auf,1765896626242,FALSE,41,1,Restaurant,I,IA,Inferenzbasiert,,der Wein,der Fleck,6,Mochte Peter den Wein?,Ja,83,false,Aber auf den Fleck auf seinem Teppich hätte er gut verzichten können.,Any addtional parameters were appended as additional columns
1765897158,24cd9c0aa9b9e63d665a1fdcb03c7e5b,PennController,15,0,1I,NULL,Controller-DashedSentence,DashedSentence_pt2,5,seinem,1765896626242,FALSE,41,1,Restaurant,I,IA,Inferenzbasiert,,der Wein,der Fleck,6,Mochte Peter den Wein?,Ja,83,false,Aber auf den Fleck auf seinem Teppich hätte er gut verzichten können.,Any addtional parameters were appended as additional columns
1765897158,24cd9c0aa9b9e63d665a1fdcb03c7e5b,PennController,15,0,1I,NULL,Controller-DashedSentence,DashedSentence_pt2,6,Teppich,1765896626242,FALSE,41,1,Restaurant,I,IA,Inferenzbasiert,,der Wein,der Fleck,6,Mochte Peter den Wein?,Ja,85,false,Aber auf den Fleck auf seinem Teppich hätte er gut verzichten können.,Any addtional parameters were appended as additional columns
1765897158,24cd9c0aa9b9e63d665a1fdcb03c7e5b,PennController,15,0,1I,NULL,Controller-DashedSentence,DashedSentence_pt2,7,hätte,1765896626242,FALSE,41,1,Restaurant,I,IA,Inferenzbasiert,,der Wein,der Fleck,6,Mochte Peter den Wein?,Ja,83,false,Aber auf den Fleck auf seinem Teppich hätte er gut verzichten können.,Any addtional parameters were appended as additional columns
1765897158,24cd9c0aa9b9e63d665a1fdcb03c7e5b,PennController,15,0,1I,NULL,Controller-DashedSentence,DashedSentence_pt2,8,er,1765896626242,FALSE,41,1,Restaurant,I,IA,Inferenzbasiert,,der Wein,der Fleck,6,Mochte Peter den Wein?,Ja,86,false,Aber auf den Fleck auf seinem Teppich hätte er gut verzichten können.,Any addtional parameters were appended as additional columns
1765897158,24cd9c0aa9b9e63d665a1fdcb03c7e5b,PennController,15,0,1I,NULL,Controller-DashedSentence,DashedSentence_pt2,9,gut,1765896626242,FALSE,41,1,Restaurant,I,IA,Inferenzbasiert,,der Wein,der Fleck,6,Mochte Peter den Wein?,Ja,84,false,Aber auf den Fleck auf seinem Teppich hätte er gut verzichten können.,Any addtional parameters were appended as additional columns
1765897158,24cd9c0aa9b9e63d665a1fdcb03c7e5b,PennController,15,0,1I,NULL,Controller-DashedSentence,DashedSentence_pt2,10,verzichten,1765896626242,FALSE,41,1,Restaurant,I,IA,Inferenzbasiert,,der Wein,der Fleck,6,Mochte Peter den Wein?,Ja,82,false,Aber auf den Fleck auf seinem Teppich hätte er gut verzichten können.,Any addtional parameters were appended as additional columns
1765897158,24cd9c0aa9b9e63d665a1fdcb03c7e5b,PennController,15,0,1I,NULL,Controller-DashedSentence,DashedSentence_pt2,11,können.,1765896626242,FALSE,41,1,Restaurant,I,IA,Inferenzbasiert,,der Wein,der Fleck,6,Mochte Peter den Wein?,Ja,84,false,Aber auf den Fleck auf seinem Teppich hätte er gut verzichten können.,Any addtional parameters were appended as additional columns
# 26. Comments.
1765897158,24cd9c0aa9b9e63d665a1fdcb03c7e5b,PennController,15,0,1I,NULL,Canvas,yes-no-responses,Print,NA,1765896626244,FALSE,41,1,Restaurant,I,IA,Inferenzbasiert,,der Wein,der Fleck,6,Mochte Peter den Wein?,Ja,NULL
1765897158,24cd9c0aa9b9e63d665a1fdcb03c7e5b,PennController,15,0,1I,NULL,Var,QuestionStartTime,Final,1765896626246,1765896626927,FALSE,41,1,Restaurant,I,IA,Inferenzbasiert,,der Wein,der Fleck,6,Mochte Peter den Wein?,Ja,Value at the end of the trial
1765897158,24cd9c0aa9b9e63d665a1fdcb03c7e5b,PennController,15,0,1I,NULL,Var,QuestionEndTime,Final,1765896626926,1765896626927,FALSE,41,1,Restaurant,I,IA,Inferenzbasiert,,der Wein,der Fleck,6,Mochte Peter den Wein?,Ja,Value at the end of the trial
1765897158,24cd9c0aa9b9e63d665a1fdcb03c7e5b,PennController,15,0,1I,NULL,Selector,selection,Selection,nein,1765896626925,FALSE,41,1,Restaurant,I,IA,Inferenzbasiert,,der Wein,der Fleck,6,Mochte Peter den Wein?,Ja,ja;nein
1765897158,24cd9c0aa9b9e63d665a1fdcb03c7e5b,PennController,15,0,1I,NULL,PennController,15,_Trial_,End,1765896626927,FALSE,41,1,Restaurant,I,IA,Inferenzbasiert,,der Wein,der Fleck,6,Mochte Peter den Wein?,Ja,NULL
1765897158,24cd9c0aa9b9e63d665a1fdcb03c7e5b,PennController,10,0,1S,NULL,PennController,10,_Trial_,Start,1765896626932,FALSE,25,1,Restaurant,S,IA,Schema-basiert,,die Küche,der Ofen,9,Arbeitet Gabi heute in der Küche?,Ja,NULL
# 26. Reading time.
# 27. Newline?.
# 28. Sentence (or sentence MD5).
# 29. Comments.
1765897158,24cd9c0aa9b9e63d665a1fdcb03c7e5b,PennController,10,0,1S,NULL,Controller-DashedSentence,DashedSentence_pt1,1,Gabi,1765896627917,FALSE,25,1,Restaurant,S,IA,Schema-basiert,,die Küche,der Ofen,9,Arbeitet Gabi heute in der Küche?,Ja,82,false,Gabi arbeitet heute in der Küche.,Any addtional parameters were appended as additional columns
1765897158,24cd9c0aa9b9e63d665a1fdcb03c7e5b,PennController,10,0,1S,NULL,Controller-DashedSentence,DashedSentence_pt1,2,arbeitet,1765896627917,FALSE,25,1,Restaurant,S,IA,Schema-basiert,,die Küche,der Ofen,9,Arbeitet Gabi heute in der Küche?,Ja,82,false,Gabi arbeitet heute in der Küche.,Any addtional parameters were appended as additional columns
1765897158,24cd9c0aa9b9e63d665a1fdcb03c7e5b,PennController,10,0,1S,NULL,Controller-DashedSentence,DashedSentence_pt1,3,heute,1765896627917,FALSE,25,1,Restaurant,S,IA,Schema-basiert,,die Küche,der Ofen,9,Arbeitet Gabi heute in der Küche?,Ja,86,false,Gabi arbeitet heute in der Küche.,Any addtional parameters were appended as additional columns
1765897158,24cd9c0aa9b9e63d665a1fdcb03c7e5b,PennController,10,0,1S,NULL,Controller-DashedSentence,DashedSentence_pt1,4,in,1765896627917,FALSE,25,1,Restaurant,S,IA,Schema-basiert,,die Küche,der Ofen,9,Arbeitet Gabi heute in der Küche?,Ja,83,false,Gabi arbeitet heute in der Küche.,Any addtional parameters were appended as additional columns
1765897158,24cd9c0aa9b9e63d665a1fdcb03c7e5b,PennController,10,0,1S,NULL,Controller-DashedSentence,DashedSentence_pt1,5,der,1765896627917,FALSE,25,1,Restaurant,S,IA,Schema-basiert,,die Küche,der Ofen,9,Arbeitet Gabi heute in der Küche?,Ja,83,false,Gabi arbeitet heute in der Küche.,Any addtional parameters were appended as additional columns
1765897158,24cd9c0aa9b9e63d665a1fdcb03c7e5b,PennController,10,0,1S,NULL,Controller-DashedSentence,DashedSentence_pt1,6,Küche.,1765896627917,FALSE,25,1,Restaurant,S,IA,Schema-basiert,,die Küche,der Ofen,9,Arbeitet Gabi heute in der Küche?,Ja,83,false,Gabi arbeitet heute in der Küche.,Any addtional parameters were appended as additional columns
1765897158,24cd9c0aa9b9e63d665a1fdcb03c7e5b,PennController,10,0,1S,NULL,Controller-DashedSentence,DashedSentence_pt2,1,Sie,1765896628586,FALSE,25,1,Restaurant,S,IA,Schema-basiert,,die Küche,der Ofen,9,Arbeitet Gabi heute in der Küche?,Ja,83,false,Sie kann mit dem Ofen allerdings schlecht umgehen.,Any addtional parameters were appended as additional columns
1765897158,24cd9c0aa9b9e63d665a1fdcb03c7e5b,PennController,10,0,1S,NULL,Controller-DashedSentence,DashedSentence_pt2,2,kann,1765896628586,FALSE,25,1,Restaurant,S,IA,Schema-basiert,,die Küche,der Ofen,9,Arbeitet Gabi heute in der Küche?,Ja,84,false,Sie kann mit dem Ofen allerdings schlecht umgehen.,Any addtional parameters were appended as additional columns
1765897158,24cd9c0aa9b9e63d665a1fdcb03c7e5b,PennController,10,0,1S,NULL,Controller-DashedSentence,DashedSentence_pt2,3,mit,1765896628586,FALSE,25,1,Restaurant,S,IA,Schema-basiert,,die Küche,der Ofen,9,Arbeitet Gabi heute in der Küche?,Ja,84,false,Sie kann mit dem Ofen allerdings schlecht umgehen.,Any addtional parameters were appended as additional columns
1765897158,24cd9c0aa9b9e63d665a1fdcb03c7e5b,PennController,10,0,1S,NULL,Controller-DashedSentence,DashedSentence_pt2,4,dem Ofen,1765896628586,FALSE,25,1,Restaurant,S,IA,Schema-basiert,,die Küche,der Ofen,9,Arbeitet Gabi heute in der Küche?,Ja,84,false,Sie kann mit dem Ofen allerdings schlecht umgehen.,Any addtional parameters were appended as additional columns
1765897158,24cd9c0aa9b9e63d665a1fdcb03c7e5b,PennController,10,0,1S,NULL,Controller-DashedSentence,DashedSentence_pt2,5,allerdings,1765896628586,FALSE,25,1,Restaurant,S,IA,Schema-basiert,,die Küche,der Ofen,9,Arbeitet Gabi heute in der Küche?,Ja,84,false,Sie kann mit dem Ofen allerdings schlecht umgehen.,Any addtional parameters were appended as additional columns
1765897158,24cd9c0aa9b9e63d665a1fdcb03c7e5b,PennController,10,0,1S,NULL,Controller-DashedSentence,DashedSentence_pt2,6,schlecht,1765896628586,FALSE,25,1,Restaurant,S,IA,Schema-basiert,,die Küche,der Ofen,9,Arbeitet Gabi heute in der Küche?,Ja,84,false,Sie kann mit dem Ofen allerdings schlecht umgehen.,Any addtional parameters were appended as additional columns
1765897158,24cd9c0aa9b9e63d665a1fdcb03c7e5b,PennController,10,0,1S,NULL,Controller-DashedSentence,DashedSentence_pt2,7,umgehen.,1765896628586,FALSE,25,1,Restaurant,S,IA,Schema-basiert,,die Küche,der Ofen,9,Arbeitet Gabi heute in der Küche?,Ja,83,false,Sie kann mit dem Ofen allerdings schlecht umgehen.,Any addtional parameters were appended as additional columns
# 26. Comments.
1765897158,24cd9c0aa9b9e63d665a1fdcb03c7e5b,PennController,10,0,1S,NULL,Canvas,yes-no-responses,Print,NA,1765896628589,FALSE,25,1,Restaurant,S,IA,Schema-basiert,,die Küche,der Ofen,9,Arbeitet Gabi heute in der Küche?,Ja,NULL
1765897158,24cd9c0aa9b9e63d665a1fdcb03c7e5b,PennController,10,0,1S,NULL,Var,QuestionStartTime,Final,1765896628590,1765896629329,FALSE,25,1,Restaurant,S,IA,Schema-basiert,,die Küche,der Ofen,9,Arbeitet Gabi heute in der Küche?,Ja,Value at the end of the trial
1765897158,24cd9c0aa9b9e63d665a1fdcb03c7e5b,PennController,10,0,1S,NULL,Var,QuestionEndTime,Final,1765896629328,1765896629329,FALSE,25,1,Restaurant,S,IA,Schema-basiert,,die Küche,der Ofen,9,Arbeitet Gabi heute in der Küche?,Ja,Value at the end of the trial
1765897158,24cd9c0aa9b9e63d665a1fdcb03c7e5b,PennController,10,0,1S,NULL,Selector,selection,Selection,nein,1765896629327,FALSE,25,1,Restaurant,S,IA,Schema-basiert,,die Küche,der Ofen,9,Arbeitet Gabi heute in der Küche?,Ja,ja;nein
1765897158,24cd9c0aa9b9e63d665a1fdcb03c7e5b,PennController,10,0,1S,NULL,PennController,10,_Trial_,End,1765896629329,FALSE,25,1,Restaurant,S,IA,Schema-basiert,,die Küche,der Ofen,9,Arbeitet Gabi heute in der Küche?,Ja,NULL
1765897158,24cd9c0aa9b9e63d665a1fdcb03c7e5b,PennController,16,0,1V,NULL,PennController,16,_Trial_,Start,1765896629335,FALSE,10,1,Krimi,V,IA,Verbsemantisch-basiert,Agens,stehlen,der Dieb,9,Wurde der Dieb von Veronicas Handtasche gefunden?,Nein,NULL
# 26. Reading time.
# 27. Newline?.
# 28. Sentence (or sentence MD5).
# 29. Comments.
1765897158,24cd9c0aa9b9e63d665a1fdcb03c7e5b,PennController,16,0,1V,NULL,Controller-DashedSentence,DashedSentence_pt1,1,Veronica,1765896630511,FALSE,10,1,Krimi,V,IA,Verbsemantisch-basiert,Agens,stehlen,der Dieb,9,Wurde der Dieb von Veronicas Handtasche gefunden?,Nein,84,false,Veronica wurde im Urlaub die Handtasche gestohlen.,Any addtional parameters were appended as additional columns
1765897158,24cd9c0aa9b9e63d665a1fdcb03c7e5b,PennController,16,0,1V,NULL,Controller-DashedSentence,DashedSentence_pt1,2,wurde,1765896630511,FALSE,10,1,Krimi,V,IA,Verbsemantisch-basiert,Agens,stehlen,der Dieb,9,Wurde der Dieb von Veronicas Handtasche gefunden?,Nein,84,false,Veronica wurde im Urlaub die Handtasche gestohlen.,Any addtional parameters were appended as additional columns
1765897158,24cd9c0aa9b9e63d665a1fdcb03c7e5b,PennController,16,0,1V,NULL,Controller-DashedSentence,DashedSentence_pt1,3,im,1765896630511,FALSE,10,1,Krimi,V,IA,Verbsemantisch-basiert,Agens,stehlen,der Dieb,9,Wurde der Dieb von Veronicas Handtasche gefunden?,Nein,83,false,Veronica wurde im Urlaub die Handtasche gestohlen.,Any addtional parameters were appended as additional columns
1765897158,24cd9c0aa9b9e63d665a1fdcb03c7e5b,PennController,16,0,1V,NULL,Controller-DashedSentence,DashedSentence_pt1,4,Urlaub,1765896630511,FALSE,10,1,Krimi,V,IA,Verbsemantisch-basiert,Agens,stehlen,der Dieb,9,Wurde der Dieb von Veronicas Handtasche gefunden?,Nein,84,false,Veronica wurde im Urlaub die Handtasche gestohlen.,Any addtional parameters were appended as additional columns
1765897158,24cd9c0aa9b9e63d665a1fdcb03c7e5b,PennController,16,0,1V,NULL,Controller-DashedSentence,DashedSentence_pt1,5,die,1765896630511,FALSE,10,1,Krimi,V,IA,Verbsemantisch-basiert,Agens,stehlen,der Dieb,9,Wurde der Dieb von Veronicas Handtasche gefunden?,Nein,84,false,Veronica wurde im Urlaub die Handtasche gestohlen.,Any addtional parameters were appended as additional columns
1765897158,24cd9c0aa9b9e63d665a1fdcb03c7e5b,PennController,16,0,1V,NULL,Controller-DashedSentence,DashedSentence_pt1,6,Handtasche,1765896630511,FALSE,10,1,Krimi,V,IA,Verbsemantisch-basiert,Agens,stehlen,der Dieb,9,Wurde der Dieb von Veronicas Handtasche gefunden?,Nein,84,false,Veronica wurde im Urlaub die Handtasche gestohlen.,Any addtional parameters were appended as additional columns
1765897158,24cd9c0aa9b9e63d665a1fdcb03c7e5b,PennController,16,0,1V,NULL,Controller-DashedSentence,DashedSentence_pt1,7,gestohlen.,1765896630511,FALSE,10,1,Krimi,V,IA,Verbsemantisch-basiert,Agens,stehlen,der Dieb,9,Wurde der Dieb von Veronicas Handtasche gefunden?,Nein,83,false,Veronica wurde im Urlaub die Handtasche gestohlen.,Any addtional parameters were appended as additional columns
1765897158,24cd9c0aa9b9e63d665a1fdcb03c7e5b,PennController,16,0,1V,NULL,Controller-DashedSentence,DashedSentence_pt2,1,Leider,1765896631017,FALSE,10,1,Krimi,V,IA,Verbsemantisch-basiert,Agens,stehlen,der Dieb,9,Wurde der Dieb von Veronicas Handtasche gefunden?,Nein,85,false,Leider wurde der Dieb nicht gefunden.,Any addtional parameters were appended as additional columns
1765897158,24cd9c0aa9b9e63d665a1fdcb03c7e5b,PennController,16,0,1V,NULL,Controller-DashedSentence,DashedSentence_pt2,2,wurde,1765896631017,FALSE,10,1,Krimi,V,IA,Verbsemantisch-basiert,Agens,stehlen,der Dieb,9,Wurde der Dieb von Veronicas Handtasche gefunden?,Nein,86,false,Leider wurde der Dieb nicht gefunden.,Any addtional parameters were appended as additional columns
1765897158,24cd9c0aa9b9e63d665a1fdcb03c7e5b,PennController,16,0,1V,NULL,Controller-DashedSentence,DashedSentence_pt2,3,der Dieb,1765896631017,FALSE,10,1,Krimi,V,IA,Verbsemantisch-basiert,Agens,stehlen,der Dieb,9,Wurde der Dieb von Veronicas Handtasche gefunden?,Nein,84,false,Leider wurde der Dieb nicht gefunden.,Any addtional parameters were appended as additional columns
1765897158,24cd9c0aa9b9e63d665a1fdcb03c7e5b,PennController,16,0,1V,NULL,Controller-DashedSentence,DashedSentence_pt2,4,nicht,1765896631017,FALSE,10,1,Krimi,V,IA,Verbsemantisch-basiert,Agens,stehlen,der Dieb,9,Wurde der Dieb von Veronicas Handtasche gefunden?,Nein,84,false,Leider wurde der Dieb nicht gefunden.,Any addtional parameters were appended as additional columns
1765897158,24cd9c0aa9b9e63d665a1fdcb03c7e5b,PennController,16,0,1V,NULL,Controller-DashedSentence,DashedSentence_pt2,5,gefunden.,1765896631017,FALSE,10,1,Krimi,V,IA,Verbsemantisch-basiert,Agens,stehlen,der Dieb,9,Wurde der Dieb von Veronicas Handtasche gefunden?,Nein,83,false,Leider wurde der Dieb nicht gefunden.,Any addtional parameters were appended as additional columns
# 26. Comments.
1765897158,24cd9c0aa9b9e63d665a1fdcb03c7e5b,PennController,16,0,1V,NULL,Canvas,yes-no-responses,Print,NA,1765896631020,FALSE,10,1,Krimi,V,IA,Verbsemantisch-basiert,Agens,stehlen,der Dieb,9,Wurde der Dieb von Veronicas Handtasche gefunden?,Nein,NULL
1765897158,24cd9c0aa9b9e63d665a1fdcb03c7e5b,PennController,16,0,1V,NULL,Var,QuestionStartTime,Final,1765896631022,1765896631641,FALSE,10,1,Krimi,V,IA,Verbsemantisch-basiert,Agens,stehlen,der Dieb,9,Wurde der Dieb von Veronicas Handtasche gefunden?,Nein,Value at the end of the trial
1765897158,24cd9c0aa9b9e63d665a1fdcb03c7e5b,PennController,16,0,1V,NULL,Var,QuestionEndTime,Final,1765896631640,1765896631641,FALSE,10,1,Krimi,V,IA,Verbsemantisch-basiert,Agens,stehlen,der Dieb,9,Wurde der Dieb von Veronicas Handtasche gefunden?,Nein,Value at the end of the trial
1765897158,24cd9c0aa9b9e63d665a1fdcb03c7e5b,PennController,16,0,1V,NULL,Selector,selection,Selection,nein,1765896631639,FALSE,10,1,Krimi,V,IA,Verbsemantisch-basiert,Agens,stehlen,der Dieb,9,Wurde der Dieb von Veronicas Handtasche gefunden?,Nein,ja;nein
1765897158,24cd9c0aa9b9e63d665a1fdcb03c7e5b,PennController,16,0,1V,NULL,PennController,16,_Trial_,End,1765896631641,FALSE,10,1,Krimi,V,IA,Verbsemantisch-basiert,Agens,stehlen,der Dieb,9,Wurde der Dieb von Veronicas Handtasche gefunden?,Nein,NULL
1765897158,24cd9c0aa9b9e63d665a1fdcb03c7e5b,PennController,14,0,1M,NULL,PennController,14,_Trial_,Start,1765896631647,FALSE,21,1,Krimi,M,IA,Meronymie-basiert,Ereignis/Episoden,der Prozess,das Urteil,8,Verfolgt Walter den Prozess?,Ja,NULL
# 26. Reading time.
# 27. Newline?.
# 28. Sentence (or sentence MD5).
# 29. Comments.
1765897158,24cd9c0aa9b9e63d665a1fdcb03c7e5b,PennController,14,0,1M,NULL,Controller-DashedSentence,DashedSentence_pt1,1,Walter,1765896632610,FALSE,21,1,Krimi,M,IA,Meronymie-basiert,Ereignis/Episoden,der Prozess,das Urteil,8,Verfolgt Walter den Prozess?,Ja,81,false,Walter verfolgt aufmerksam den Prozess.,Any addtional parameters were appended as additional columns
1765897158,24cd9c0aa9b9e63d665a1fdcb03c7e5b,PennController,14,0,1M,NULL,Controller-DashedSentence,DashedSentence_pt1,2,verfolgt,1765896632610,FALSE,21,1,Krimi,M,IA,Meronymie-basiert,Ereignis/Episoden,der Prozess,das Urteil,8,Verfolgt Walter den Prozess?,Ja,83,false,Walter verfolgt aufmerksam den Prozess.,Any addtional parameters were appended as additional columns
1765897158,24cd9c0aa9b9e63d665a1fdcb03c7e5b,PennController,14,0,1M,NULL,Controller-DashedSentence,DashedSentence_pt1,3,aufmerksam,1765896632610,FALSE,21,1,Krimi,M,IA,Meronymie-basiert,Ereignis/Episoden,der Prozess,das Urteil,8,Verfolgt Walter den Prozess?,Ja,84,false,Walter verfolgt aufmerksam den Prozess.,Any addtional parameters were appended as additional columns
1765897158,24cd9c0aa9b9e63d665a1fdcb03c7e5b,PennController,14,0,1M,NULL,Controller-DashedSentence,DashedSentence_pt1,4,den,1765896632610,FALSE,21,1,Krimi,M,IA,Meronymie-basiert,Ereignis/Episoden,der Prozess,das Urteil,8,Verfolgt Walter den Prozess?,Ja,84,false,Walter verfolgt aufmerksam den Prozess.,Any addtional parameters were appended as additional columns
1765897158,24cd9c0aa9b9e63d665a1fdcb03c7e5b,PennController,14,0,1M,NULL,Controller-DashedSentence,DashedSentence_pt1,5,Prozess.,1765896632610,FALSE,21,1,Krimi,M,IA,Meronymie-basiert,Ereignis/Episoden,der Prozess,das Urteil,8,Verfolgt Walter den Prozess?,Ja,84,false,Walter verfolgt aufmerksam den Prozess.,Any addtional parameters were appended as additional columns
1765897158,24cd9c0aa9b9e63d665a1fdcb03c7e5b,PennController,14,0,1M,NULL,Controller-DashedSentence,DashedSentence_pt2,1,Er,1765896633201,FALSE,21,1,Krimi,M,IA,Meronymie-basiert,Ereignis/Episoden,der Prozess,das Urteil,8,Verfolgt Walter den Prozess?,Ja,83,false,Er ist auf das Urteil sehr gespannt.,Any addtional parameters were appended as additional columns
1765897158,24cd9c0aa9b9e63d665a1fdcb03c7e5b,PennController,14,0,1M,NULL,Controller-DashedSentence,DashedSentence_pt2,2,ist,1765896633201,FALSE,21,1,Krimi,M,IA,Meronymie-basiert,Ereignis/Episoden,der Prozess,das Urteil,8,Verfolgt Walter den Prozess?,Ja,83,false,Er ist auf das Urteil sehr gespannt.,Any addtional parameters were appended as additional columns
1765897158,24cd9c0aa9b9e63d665a1fdcb03c7e5b,PennController,14,0,1M,NULL,Controller-DashedSentence,DashedSentence_pt2,3,auf,1765896633201,FALSE,21,1,Krimi,M,IA,Meronymie-basiert,Ereignis/Episoden,der Prozess,das Urteil,8,Verfolgt Walter den Prozess?,Ja,85,false,Er ist auf das Urteil sehr gespannt.,Any addtional parameters were appended as additional columns
1765897158,24cd9c0aa9b9e63d665a1fdcb03c7e5b,PennController,14,0,1M,NULL,Controller-DashedSentence,DashedSentence_pt2,4,das Urteil,1765896633201,FALSE,21,1,Krimi,M,IA,Meronymie-basiert,Ereignis/Episoden,der Prozess,das Urteil,8,Verfolgt Walter den Prozess?,Ja,83,false,Er ist auf das Urteil sehr gespannt.,Any addtional parameters were appended as additional columns
1765897158,24cd9c0aa9b9e63d665a1fdcb03c7e5b,PennController,14,0,1M,NULL,Controller-DashedSentence,DashedSentence_pt2,5,sehr,1765896633201,FALSE,21,1,Krimi,M,IA,Meronymie-basiert,Ereignis/Episoden,der Prozess,das Urteil,8,Verfolgt Walter den Prozess?,Ja,85,false,Er ist auf das Urteil sehr gespannt.,Any addtional parameters were appended as additional columns
1765897158,24cd9c0aa9b9e63d665a1fdcb03c7e5b,PennController,14,0,1M,NULL,Controller-DashedSentence,DashedSentence_pt2,6,gespannt.,1765896633201,FALSE,21,1,Krimi,M,IA,Meronymie-basiert,Ereignis/Episoden,der Prozess,das Urteil,8,Verfolgt Walter den Prozess?,Ja,88,false,Er ist auf das Urteil sehr gespannt.,Any addtional parameters were appended as additional columns
# 26. Comments.
1765897158,24cd9c0aa9b9e63d665a1fdcb03c7e5b,PennController,14,0,1M,NULL,Canvas,yes-no-responses,Print,NA,1765896633204,FALSE,21,1,Krimi,M,IA,Meronymie-basiert,Ereignis/Episoden,der Prozess,das Urteil,8,Verfolgt Walter den Prozess?,Ja,NULL
1765897158,24cd9c0aa9b9e63d665a1fdcb03c7e5b,PennController,14,0,1M,NULL,Var,QuestionStartTime,Final,1765896633206,1765896634241,FALSE,21,1,Krimi,M,IA,Meronymie-basiert,Ereignis/Episoden,der Prozess,das Urteil,8,Verfolgt Walter den Prozess?,Ja,Value at the end of the trial
1765897158,24cd9c0aa9b9e63d665a1fdcb03c7e5b,PennController,14,0,1M,NULL,Var,QuestionEndTime,Final,1765896634240,1765896634241,FALSE,21,1,Krimi,M,IA,Meronymie-basiert,Ereignis/Episoden,der Prozess,das Urteil,8,Verfolgt Walter den Prozess?,Ja,Value at the end of the trial
1765897158,24cd9c0aa9b9e63d665a1fdcb03c7e5b,PennController,14,0,1M,NULL,Selector,selection,Selection,nein,1765896634239,FALSE,21,1,Krimi,M,IA,Meronymie-basiert,Ereignis/Episoden,der Prozess,das Urteil,8,Verfolgt Walter den Prozess?,Ja,ja;nein
1765897158,24cd9c0aa9b9e63d665a1fdcb03c7e5b,PennController,14,0,1M,NULL,PennController,14,_Trial_,End,1765896634241,FALSE,21,1,Krimi,M,IA,Meronymie-basiert,Ereignis/Episoden,der Prozess,das Urteil,8,Verfolgt Walter den Prozess?,Ja,NULL
1765897158,24cd9c0aa9b9e63d665a1fdcb03c7e5b,PennController,17,0,1I,NULL,PennController,17,_Trial_,Start,1765896634248,FALSE,37,1,Restaurant,I,DA,,,,die Gräten,9,,,NULL
# 26. Reading time.
# 27. Newline?.
# 28. Sentence (or sentence MD5).
# 29. Comments.
1765897158,24cd9c0aa9b9e63d665a1fdcb03c7e5b,PennController,17,0,1I,NULL,Controller-DashedSentence,DashedSentence_pt1,1,Rolf,1765896635455,FALSE,37,1,Restaurant,I,DA,,,,die Gräten,9,,,84,false,Rolf sucht in seinem Essen nach Gräten.,Any addtional parameters were appended as additional columns
1765897158,24cd9c0aa9b9e63d665a1fdcb03c7e5b,PennController,17,0,1I,NULL,Controller-DashedSentence,DashedSentence_pt1,2,sucht,1765896635455,FALSE,37,1,Restaurant,I,DA,,,,die Gräten,9,,,83,false,Rolf sucht in seinem Essen nach Gräten.,Any addtional parameters were appended as additional columns
1765897158,24cd9c0aa9b9e63d665a1fdcb03c7e5b,PennController,17,0,1I,NULL,Controller-DashedSentence,DashedSentence_pt1,3,in,1765896635455,FALSE,37,1,Restaurant,I,DA,,,,die Gräten,9,,,84,false,Rolf sucht in seinem Essen nach Gräten.,Any addtional parameters were appended as additional columns
1765897158,24cd9c0aa9b9e63d665a1fdcb03c7e5b,PennController,17,0,1I,NULL,Controller-DashedSentence,DashedSentence_pt1,4,seinem,1765896635455,FALSE,37,1,Restaurant,I,DA,,,,die Gräten,9,,,85,false,Rolf sucht in seinem Essen nach Gräten.,Any addtional parameters were appended as additional columns
1765897158,24cd9c0aa9b9e63d665a1fdcb03c7e5b,PennController,17,0,1I,NULL,Controller-DashedSentence,DashedSentence_pt1,5,Essen,1765896635455,FALSE,37,1,Restaurant,I,DA,,,,die Gräten,9,,,82,false,Rolf sucht in seinem Essen nach Gräten.,Any addtional parameters were appended as additional columns
1765897158,24cd9c0aa9b9e63d665a1fdcb03c7e5b,PennController,17,0,1I,NULL,Controller-DashedSentence,DashedSentence_pt1,6,nach,1765896635455,FALSE,37,1,Restaurant,I,DA,,,,die Gräten,9,,,84,false,Rolf sucht in seinem Essen nach Gräten.,Any addtional parameters were appended as additional columns
1765897158,24cd9c0aa9b9e63d665a1fdcb03c7e5b,PennController,17,0,1I,NULL,Controller-DashedSentence,DashedSentence_pt1,7,Gräten.,1765896635455,FALSE,37,1,Restaurant,I,DA,,,,die Gräten,9,,,83,false,Rolf sucht in seinem Essen nach Gräten.,Any addtional parameters were appended as additional columns
1765897158,24cd9c0aa9b9e63d665a1fdcb03c7e5b,PennController,17,0,1I,NULL,Controller-DashedSentence,DashedSentence_pt2,1,Er,1765896635959,FALSE,37,1,Restaurant,I,DA,,,,die Gräten,9,,,84,false,Er entfernt die Gräten überaus sorgsam.,Any addtional parameters were appended as additional columns
1765897158,24cd9c0aa9b9e63d665a1fdcb03c7e5b,PennController,17,0,1I,NULL,Controller-DashedSentence,DashedSentence_pt2,2,entfernt,1765896635959,FALSE,37,1,Restaurant,I,DA,,,,die Gräten,9,,,80,false,Er entfernt die Gräten überaus sorgsam.,Any addtional parameters were appended as additional columns
1765897158,24cd9c0aa9b9e63d665a1fdcb03c7e5b,PennController,17,0,1I,NULL,Controller-DashedSentence,DashedSentence_pt2,3,die Gräten,1765896635959,FALSE,37,1,Restaurant,I,DA,,,,die Gräten,9,,,86,false,Er entfernt die Gräten überaus sorgsam.,Any addtional parameters were appended as additional columns
1765897158,24cd9c0aa9b9e63d665a1fdcb03c7e5b,PennController,17,0,1I,NULL,Controller-DashedSentence,DashedSentence_pt2,4,überaus,1765896635959,FALSE,37,1,Restaurant,I,DA,,,,die Gräten,9,,,84,false,Er entfernt die Gräten überaus sorgsam.,Any addtional parameters were appended as additional columns
1765897158,24cd9c0aa9b9e63d665a1fdcb03c7e5b,PennController,17,0,1I,NULL,Controller-DashedSentence,DashedSentence_pt2,5,sorgsam.,1765896635959,FALSE,37,1,Restaurant,I,DA,,,,die Gräten,9,,,84,false,Er entfernt die Gräten überaus sorgsam.,Any addtional parameters were appended as additional columns
# 26. Comments.
1765897158,24cd9c0aa9b9e63d665a1fdcb03c7e5b,PennController,17,0,1I,NULL,PennController,17,_Trial_,End,1765896635960,FALSE,37,1,Restaurant,I,DA,,,,die Gräten,9,,,NULL
1765897158,24cd9c0aa9b9e63d665a1fdcb03c7e5b,PennController,12,0,1S,NULL,PennController,12,_Trial_,Start,1765896635967,FALSE,35,1,Krimi,S,DA,,,,die Zeugen,11,,,NULL
# 26. Reading time.
# 27. Newline?.
# 28. Sentence (or sentence MD5).
# 29. Comments.
1765897158,24cd9c0aa9b9e63d665a1fdcb03c7e5b,PennController,12,0,1S,NULL,Controller-DashedSentence,DashedSentence_pt1,1,Lisa,1765896637301,FALSE,35,1,Krimi,S,DA,,,,die Zeugen,11,,,90,false,Lisa sucht in ihrem Fall dringend Zeugen.,Any addtional parameters were appended as additional columns
1765897158,24cd9c0aa9b9e63d665a1fdcb03c7e5b,PennController,12,0,1S,NULL,Controller-DashedSentence,DashedSentence_pt1,2,sucht,1765896637301,FALSE,35,1,Krimi,S,DA,,,,die Zeugen,11,,,80,false,Lisa sucht in ihrem Fall dringend Zeugen.,Any addtional parameters were appended as additional columns
1765897158,24cd9c0aa9b9e63d665a1fdcb03c7e5b,PennController,12,0,1S,NULL,Controller-DashedSentence,DashedSentence_pt1,3,in,1765896637301,FALSE,35,1,Krimi,S,DA,,,,die Zeugen,11,,,86,false,Lisa sucht in ihrem Fall dringend Zeugen.,Any addtional parameters were appended as additional columns
1765897158,24cd9c0aa9b9e63d665a1fdcb03c7e5b,PennController,12,0,1S,NULL,Controller-DashedSentence,DashedSentence_pt1,4,ihrem,1765896637301,FALSE,35,1,Krimi,S,DA,,,,die Zeugen,11,,,83,false,Lisa sucht in ihrem Fall dringend Zeugen.,Any addtional parameters were appended as additional columns
1765897158,24cd9c0aa9b9e63d665a1fdcb03c7e5b,PennController,12,0,1S,NULL,Controller-DashedSentence,DashedSentence_pt1,5,Fall,1765896637301,FALSE,35,1,Krimi,S,DA,,,,die Zeugen,11,,,81,false,Lisa sucht in ihrem Fall dringend Zeugen.,Any addtional parameters were appended as additional columns
1765897158,24cd9c0aa9b9e63d665a1fdcb03c7e5b,PennController,12,0,1S,NULL,Controller-DashedSentence,DashedSentence_pt1,6,dringend,1765896637301,FALSE,35,1,Krimi,S,DA,,,,die Zeugen,11,,,88,false,Lisa sucht in ihrem Fall dringend Zeugen.,Any addtional parameters were appended as additional columns
1765897158,24cd9c0aa9b9e63d665a1fdcb03c7e5b,PennController,12,0,1S,NULL,Controller-DashedSentence,DashedSentence_pt1,7,Zeugen.,1765896637301,FALSE,35,1,Krimi,S,DA,,,,die Zeugen,11,,,83,false,Lisa sucht in ihrem Fall dringend Zeugen.,Any addtional parameters were appended as additional columns
1765897158,24cd9c0aa9b9e63d665a1fdcb03c7e5b,PennController,12,0,1S,NULL,Controller-DashedSentence,DashedSentence_pt2,1,Sie,1765896637967,FALSE,35,1,Krimi,S,DA,,,,die Zeugen,11,,,83,false,Sie erhofft sich von den Zeugen weitere Hinweise.,Any addtional parameters were appended as additional columns
1765897158,24cd9c0aa9b9e63d665a1fdcb03c7e5b,PennController,12,0,1S,NULL,Controller-DashedSentence,DashedSentence_pt2,2,erhofft,1765896637967,FALSE,35,1,Krimi,S,DA,,,,die Zeugen,11,,,82,false,Sie erhofft sich von den Zeugen weitere Hinweise.,Any addtional parameters were appended as additional columns
1765897158,24cd9c0aa9b9e63d665a1fdcb03c7e5b,PennController,12,0,1S,NULL,Controller-DashedSentence,DashedSentence_pt2,3,sich,1765896637967,FALSE,35,1,Krimi,S,DA,,,,die Zeugen,11,,,84,false,Sie erhofft sich von den Zeugen weitere Hinweise.,Any addtional parameters were appended as additional columns
1765897158,24cd9c0aa9b9e63d665a1fdcb03c7e5b,PennController,12,0,1S,NULL,Controller-DashedSentence,DashedSentence_pt2,4,von,1765896637967,FALSE,35,1,Krimi,S,DA,,,,die Zeugen,11,,,84,false,Sie erhofft sich von den Zeugen weitere Hinweise.,Any addtional parameters were appended as additional columns
1765897158,24cd9c0aa9b9e63d665a1fdcb03c7e5b,PennController,12,0,1S,NULL,Controller-DashedSentence,DashedSentence_pt2,5,den Zeugen,1765896637967,FALSE,35,1,Krimi,S,DA,,,,die Zeugen,11,,,81,false,Sie erhofft sich von den Zeugen weitere Hinweise.,Any addtional parameters were appended as additional columns
1765897158,24cd9c0aa9b9e63d665a1fdcb03c7e5b,PennController,12,0,1S,NULL,Controller-DashedSentence,DashedSentence_pt2,6,weitere,1765896637967,FALSE,35,1,Krimi,S,DA,,,,die Zeugen,11,,,86,false,Sie erhofft sich von den Zeugen weitere Hinweise.,Any addtional parameters were appended as additional columns
1765897158,24cd9c0aa9b9e63d665a1fdcb03c7e5b,PennController,12,0,1S,NULL,Controller-DashedSentence,DashedSentence_pt2,7,Hinweise.,1765896637967,FALSE,35,1,Krimi,S,DA,,,,die Zeugen,11,,,83,false,Sie erhofft sich von den Zeugen weitere Hinweise.,Any addtional parameters were appended as additional columns
# 26. Comments.
1765897158,24cd9c0aa9b9e63d665a1fdcb03c7e5b,PennController,12,0,1S,NULL,PennController,12,_Trial_,End,1765896637968,FALSE,35,1,Krimi,S,DA,,,,die Zeugen,11,,,NULL
1765897158,24cd9c0aa9b9e63d665a1fdcb03c7e5b,PennController,19,0,1V,NULL,PennController,19,_Trial_,Start,1765896637976,FALSE,1,1,Restaurant,V,IA,Verbsemantisch-basiert,Instrument,schneiden,das Messer,6,,,NULL
# 26. Reading time.
# 27. Newline?.
# 28. Sentence (or sentence MD5).
# 29. Comments.
1765897158,24cd9c0aa9b9e63d665a1fdcb03c7e5b,PennController,19,0,1V,NULL,Controller-DashedSentence,DashedSentence_pt1,1,Klara,1765896639135,FALSE,1,1,Restaurant,V,IA,Verbsemantisch-basiert,Instrument,schneiden,das Messer,6,,,84,false,Klara hat Gemüse geschnitten.,Any addtional parameters were appended as additional columns
1765897158,24cd9c0aa9b9e63d665a1fdcb03c7e5b,PennController,19,0,1V,NULL,Controller-DashedSentence,DashedSentence_pt1,2,hat,1765896639135,FALSE,1,1,Restaurant,V,IA,Verbsemantisch-basiert,Instrument,schneiden,das Messer,6,,,98,false,Klara hat Gemüse geschnitten.,Any addtional parameters were appended as additional columns
1765897158,24cd9c0aa9b9e63d665a1fdcb03c7e5b,PennController,19,0,1V,NULL,Controller-DashedSentence,DashedSentence_pt1,3,Gemüse,1765896639135,FALSE,1,1,Restaurant,V,IA,Verbsemantisch-basiert,Instrument,schneiden,das Messer,6,,,68,false,Klara hat Gemüse geschnitten.,Any addtional parameters were appended as additional columns
1765897158,24cd9c0aa9b9e63d665a1fdcb03c7e5b,PennController,19,0,1V,NULL,Controller-DashedSentence,DashedSentence_pt1,4,geschnitten.,1765896639135,FALSE,1,1,Restaurant,V,IA,Verbsemantisch-basiert,Instrument,schneiden,das Messer,6,,,85,false,Klara hat Gemüse geschnitten.,Any addtional parameters were appended as additional columns
1765897158,24cd9c0aa9b9e63d665a1fdcb03c7e5b,PennController,19,0,1V,NULL,Controller-DashedSentence,DashedSentence_pt2,1,Leider,1765896639725,FALSE,1,1,Restaurant,V,IA,Verbsemantisch-basiert,Instrument,schneiden,das Messer,6,,,84,false,Leider war das Messer nicht scharf genug.,Any addtional parameters were appended as additional columns
1765897158,24cd9c0aa9b9e63d665a1fdcb03c7e5b,PennController,19,0,1V,NULL,Controller-DashedSentence,DashedSentence_pt2,2,war,1765896639725,FALSE,1,1,Restaurant,V,IA,Verbsemantisch-basiert,Instrument,schneiden,das Messer,6,,,84,false,Leider war das Messer nicht scharf genug.,Any addtional parameters were appended as additional columns
1765897158,24cd9c0aa9b9e63d665a1fdcb03c7e5b,PennController,19,0,1V,NULL,Controller-DashedSentence,DashedSentence_pt2,3,das Messer,1765896639725,FALSE,1,1,Restaurant,V,IA,Verbsemantisch-basiert,Instrument,schneiden,das Messer,6,,,85,false,Leider war das Messer nicht scharf genug.,Any addtional parameters were appended as additional columns
1765897158,24cd9c0aa9b9e63d665a1fdcb03c7e5b,PennController,19,0,1V,NULL,Controller-DashedSentence,DashedSentence_pt2,4,nicht,1765896639725,FALSE,1,1,Restaurant,V,IA,Verbsemantisch-basiert,Instrument,schneiden,das Messer,6,,,82,false,Leider war das Messer nicht scharf genug.,Any addtional parameters were appended as additional columns
1765897158,24cd9c0aa9b9e63d665a1fdcb03c7e5b,PennController,19,0,1V,NULL,Controller-DashedSentence,DashedSentence_pt2,5,scharf,1765896639725,FALSE,1,1,Restaurant,V,IA,Verbsemantisch-basiert,Instrument,schneiden,das Messer,6,,,84,false,Leider war das Messer nicht scharf genug.,Any addtional parameters were appended as additional columns
1765897158,24cd9c0aa9b9e63d665a1fdcb03c7e5b,PennController,19,0,1V,NULL,Controller-DashedSentence,DashedSentence_pt2,6,genug.,1765896639725,FALSE,1,1,Restaurant,V,IA,Verbsemantisch-basiert,Instrument,schneiden,das Messer,6,,,86,false,Leider war das Messer nicht scharf genug.,Any addtional parameters were appended as additional columns
# 26. Comments.
1765897158,24cd9c0aa9b9e63d665a1fdcb03c7e5b,PennController,19,0,1V,NULL,PennController,19,_Trial_,End,1765896639726,FALSE,1,1,Restaurant,V,IA,Verbsemantisch-basiert,Instrument,schneiden,das Messer,6,,,NULL
1765897158,24cd9c0aa9b9e63d665a1fdcb03c7e5b,PennController,11,0,1M,NULL,PennController,11,_Trial_,Start,1765896639733,FALSE,20,1,Krimi,M,IA,Meronymie-basiert,Objekt/Material,das Messer,das Metall,9,,,NULL
# 26. Reading time.
# 27. Newline?.
# 28. Sentence (or sentence MD5).
# 29. Comments.
1765897158,24cd9c0aa9b9e63d665a1fdcb03c7e5b,PennController,11,0,1M,NULL,Controller-DashedSentence,DashedSentence_pt1,1,Gina,1765896640810,FALSE,20,1,Krimi,M,IA,Meronymie-basiert,Objekt/Material,das Messer,das Metall,9,,,84,false,Gina spürt an ihrem Hals das Messer.,Any addtional parameters were appended as additional columns
1765897158,24cd9c0aa9b9e63d665a1fdcb03c7e5b,PennController,11,0,1M,NULL,Controller-DashedSentence,DashedSentence_pt1,2,spürt,1765896640810,FALSE,20,1,Krimi,M,IA,Meronymie-basiert,Objekt/Material,das Messer,das Metall,9,,,84,false,Gina spürt an ihrem Hals das Messer.,Any addtional parameters were appended as additional columns
1765897158,24cd9c0aa9b9e63d665a1fdcb03c7e5b,PennController,11,0,1M,NULL,Controller-DashedSentence,DashedSentence_pt1,3,an,1765896640810,FALSE,20,1,Krimi,M,IA,Meronymie-basiert,Objekt/Material,das Messer,das Metall,9,,,83,false,Gina spürt an ihrem Hals das Messer.,Any addtional parameters were appended as additional columns
1765897158,24cd9c0aa9b9e63d665a1fdcb03c7e5b,PennController,11,0,1M,NULL,Controller-DashedSentence,DashedSentence_pt1,4,ihrem,1765896640810,FALSE,20,1,Krimi,M,IA,Meronymie-basiert,Objekt/Material,das Messer,das Metall,9,,,83,false,Gina spürt an ihrem Hals das Messer.,Any addtional parameters were appended as additional columns
1765897158,24cd9c0aa9b9e63d665a1fdcb03c7e5b,PennController,11,0,1M,NULL,Controller-DashedSentence,DashedSentence_pt1,5,Hals,1765896640810,FALSE,20,1,Krimi,M,IA,Meronymie-basiert,Objekt/Material,das Messer,das Metall,9,,,84,false,Gina spürt an ihrem Hals das Messer.,Any addtional parameters were appended as additional columns
1765897158,24cd9c0aa9b9e63d665a1fdcb03c7e5b,PennController,11,0,1M,NULL,Controller-DashedSentence,DashedSentence_pt1,6,das,1765896640810,FALSE,20,1,Krimi,M,IA,Meronymie-basiert,Objekt/Material,das Messer,das Metall,9,,,83,false,Gina spürt an ihrem Hals das Messer.,Any addtional parameters were appended as additional columns
1765897158,24cd9c0aa9b9e63d665a1fdcb03c7e5b,PennController,11,0,1M,NULL,Controller-DashedSentence,DashedSentence_pt1,7,Messer.,1765896640810,FALSE,20,1,Krimi,M,IA,Meronymie-basiert,Objekt/Material,das Messer,das Metall,9,,,83,false,Gina spürt an ihrem Hals das Messer.,Any addtional parameters were appended as additional columns
1765897158,24cd9c0aa9b9e63d665a1fdcb03c7e5b,PennController,11,0,1M,NULL,Controller-DashedSentence,DashedSentence_pt2,1,Sie,1765896641394,FALSE,20,1,Krimi,M,IA,Meronymie-basiert,Objekt/Material,das Messer,das Metall,9,,,84,false,Sie empfindet das Metall als ungewöhnlich kalt.,Any addtional parameters were appended as additional columns
1765897158,24cd9c0aa9b9e63d665a1fdcb03c7e5b,PennController,11,0,1M,NULL,Controller-DashedSentence,DashedSentence_pt2,2,empfindet,1765896641394,FALSE,20,1,Krimi,M,IA,Meronymie-basiert,Objekt/Material,das Messer,das Metall,9,,,83,false,Sie empfindet das Metall als ungewöhnlich kalt.,Any addtional parameters were appended as additional columns
1765897158,24cd9c0aa9b9e63d665a1fdcb03c7e5b,PennController,11,0,1M,NULL,Controller-DashedSentence,DashedSentence_pt2,3,das Metall,1765896641394,FALSE,20,1,Krimi,M,IA,Meronymie-basiert,Objekt/Material,das Messer,das Metall,9,,,83,false,Sie empfindet das Metall als ungewöhnlich kalt.,Any addtional parameters were appended as additional columns
1765897158,24cd9c0aa9b9e63d665a1fdcb03c7e5b,PennController,11,0,1M,NULL,Controller-DashedSentence,DashedSentence_pt2,4,als,1765896641394,FALSE,20,1,Krimi,M,IA,Meronymie-basiert,Objekt/Material,das Messer,das Metall,9,,,84,false,Sie empfindet das Metall als ungewöhnlich kalt.,Any addtional parameters were appended as additional columns
1765897158,24cd9c0aa9b9e63d665a1fdcb03c7e5b,PennController,11,0,1M,NULL,Controller-DashedSentence,DashedSentence_pt2,5,ungewöhnlich,1765896641394,FALSE,20,1,Krimi,M,IA,Meronymie-basiert,Objekt/Material,das Messer,das Metall,9,,,83,false,Sie empfindet das Metall als ungewöhnlich kalt.,Any addtional parameters were appended as additional columns
1765897158,24cd9c0aa9b9e63d665a1fdcb03c7e5b,PennController,11,0,1M,NULL,Controller-DashedSentence,DashedSentence_pt2,6,kalt.,1765896641394,FALSE,20,1,Krimi,M,IA,Meronymie-basiert,Objekt/Material,das Messer,das Metall,9,,,84,false,Sie empfindet das Metall als ungewöhnlich kalt.,Any addtional parameters were appended as additional columns
# 26. Comments.
1765897158,24cd9c0aa9b9e63d665a1fdcb03c7e5b,PennController,11,0,1M,NULL,PennController,11,_Trial_,End,1765896641395,FALSE,20,1,Krimi,M,IA,Meronymie-basiert,Objekt/Material,das Messer,das Metall,9,,,NULL
1765897158,24cd9c0aa9b9e63d665a1fdcb03c7e5b,PennController,32,0,2I,NULL,PennController,32,_Trial_,Start,1765896641401,FALSE,43,2,Krimi,I,IA,Inferenzbasiert,,der Tote,der Mörder,9,,,NULL
# 26. Reading time.
# 27. Newline?.
# 28. Sentence (or sentence MD5).
# 29. Comments.
1765897158,24cd9c0aa9b9e63d665a1fdcb03c7e5b,PennController,32,0,2I,NULL,Controller-DashedSentence,DashedSentence_pt1,1,Denise,1765896642233,FALSE,43,2,Krimi,I,IA,Inferenzbasiert,,der Tote,der Mörder,9,,,84,false,Denise fand den Toten.,Any addtional parameters were appended as additional columns
1765897158,24cd9c0aa9b9e63d665a1fdcb03c7e5b,PennController,32,0,2I,NULL,Controller-DashedSentence,DashedSentence_pt1,2,fand,1765896642233,FALSE,43,2,Krimi,I,IA,Inferenzbasiert,,der Tote,der Mörder,9,,,86,false,Denise fand den Toten.,Any addtional parameters were appended as additional columns
1765897158,24cd9c0aa9b9e63d665a1fdcb03c7e5b,PennController,32,0,2I,NULL,Controller-DashedSentence,DashedSentence_pt1,3,den,1765896642233,FALSE,43,2,Krimi,I,IA,Inferenzbasiert,,der Tote,der Mörder,9,,,84,false,Denise fand den Toten.,Any addtional parameters were appended as additional columns
1765897158,24cd9c0aa9b9e63d665a1fdcb03c7e5b,PennController,32,0,2I,NULL,Controller-DashedSentence,DashedSentence_pt1,4,Toten.,1765896642233,FALSE,43,2,Krimi,I,IA,Inferenzbasiert,,der Tote,der Mörder,9,,,83,false,Denise fand den Toten.,Any addtional parameters were appended as additional columns
1765897158,24cd9c0aa9b9e63d665a1fdcb03c7e5b,PennController,32,0,2I,NULL,Controller-DashedSentence,DashedSentence_pt2,1,Bis,1765896642986,FALSE,43,2,Krimi,I,IA,Inferenzbasiert,,der Tote,der Mörder,9,,,84,false,Bis jetzt gibt es auf den Mörder keine Hinweise.,Any addtional parameters were appended as additional columns
1765897158,24cd9c0aa9b9e63d665a1fdcb03c7e5b,PennController,32,0,2I,NULL,Controller-DashedSentence,DashedSentence_pt2,2,jetzt,1765896642986,FALSE,43,2,Krimi,I,IA,Inferenzbasiert,,der Tote,der Mörder,9,,,85,false,Bis jetzt gibt es auf den Mörder keine Hinweise.,Any addtional parameters were appended as additional columns
1765897158,24cd9c0aa9b9e63d665a1fdcb03c7e5b,PennController,32,0,2I,NULL,Controller-DashedSentence,DashedSentence_pt2,3,gibt,1765896642986,FALSE,43,2,Krimi,I,IA,Inferenzbasiert,,der Tote,der Mörder,9,,,83,false,Bis jetzt gibt es auf den Mörder keine Hinweise.,Any addtional parameters were appended as additional columns
1765897158,24cd9c0aa9b9e63d665a1fdcb03c7e5b,PennController,32,0,2I,NULL,Controller-DashedSentence,DashedSentence_pt2,4,es,1765896642986,FALSE,43,2,Krimi,I,IA,Inferenzbasiert,,der Tote,der Mörder,9,,,84,false,Bis jetzt gibt es auf den Mörder keine Hinweise.,Any addtional parameters were appended as additional columns
1765897158,24cd9c0aa9b9e63d665a1fdcb03c7e5b,PennController,32,0,2I,NULL,Controller-DashedSentence,DashedSentence_pt2,5,auf,1765896642986,FALSE,43,2,Krimi,I,IA,Inferenzbasiert,,der Tote,der Mörder,9,,,84,false,Bis jetzt gibt es auf den Mörder keine Hinweise.,Any addtional parameters were appended as additional columns
1765897158,24cd9c0aa9b9e63d665a1fdcb03c7e5b,PennController,32,0,2I,NULL,Controller-DashedSentence,DashedSentence_pt2,6,den Mörder,1765896642986,FALSE,43,2,Krimi,I,IA,Inferenzbasiert,,der Tote,der Mörder,9,,,82,false,Bis jetzt gibt es auf den Mörder keine Hinweise.,Any addtional parameters were appended as additional columns
1765897158,24cd9c0aa9b9e63d665a1fdcb03c7e5b,PennController,32,0,2I,NULL,Controller-DashedSentence,DashedSentence_pt2,7,keine,1765896642986,FALSE,43,2,Krimi,I,IA,Inferenzbasiert,,der Tote,der Mörder,9,,,84,false,Bis jetzt gibt es auf den Mörder keine Hinweise.,Any addtional parameters were appended as additional columns
1765897158,24cd9c0aa9b9e63d665a1fdcb03c7e5b,PennController,32,0,2I,NULL,Controller-DashedSentence,DashedSentence_pt2,8,Hinweise.,1765896642986,FALSE,43,2,Krimi,I,IA,Inferenzbasiert,,der Tote,der Mörder,9,,,84,false,Bis jetzt gibt es auf den Mörder keine Hinweise.,Any addtional parameters were appended as additional columns
# 26. Comments.
1765897158,24cd9c0aa9b9e63d665a1fdcb03c7e5b,PennController,32,0,2I,NULL,PennController,32,_Trial_,End,1765896642987,FALSE,43,2,Krimi,I,IA,Inferenzbasiert,,der Tote,der Mörder,9,,,NULL
1765897158,24cd9c0aa9b9e63d665a1fdcb03c7e5b,PennController,27,0,2V,NULL,PennController,27,_Trial_,Start,1765896642993,FALSE,7,2,Krimi,V,DA,,,,das Gewehr,11,Findet Judith auf dem Dachboden ein Gewehr?,Nein,NULL
# 26. Reading time.
# 27. Newline?.
# 28. Sentence (or sentence MD5).
# 29. Comments.
1765897158,24cd9c0aa9b9e63d665a1fdcb03c7e5b,PennController,27,0,2V,NULL,Controller-DashedSentence,DashedSentence_pt1,1,Judith,1765896644159,FALSE,7,2,Krimi,V,DA,,,,das Gewehr,11,Findet Judith auf dem Dachboden ein Gewehr?,Nein,83,false,Judith findet im Keller ihres Hauses ein Gewehr.,Any addtional parameters were appended as additional columns
1765897158,24cd9c0aa9b9e63d665a1fdcb03c7e5b,PennController,27,0,2V,NULL,Controller-DashedSentence,DashedSentence_pt1,2,findet,1765896644159,FALSE,7,2,Krimi,V,DA,,,,das Gewehr,11,Findet Judith auf dem Dachboden ein Gewehr?,Nein,84,false,Judith findet im Keller ihres Hauses ein Gewehr.,Any addtional parameters were appended as additional columns
1765897158,24cd9c0aa9b9e63d665a1fdcb03c7e5b,PennController,27,0,2V,NULL,Controller-DashedSentence,DashedSentence_pt1,3,im,1765896644159,FALSE,7,2,Krimi,V,DA,,,,das Gewehr,11,Findet Judith auf dem Dachboden ein Gewehr?,Nein,84,false,Judith findet im Keller ihres Hauses ein Gewehr.,Any addtional parameters were appended as additional columns
1765897158,24cd9c0aa9b9e63d665a1fdcb03c7e5b,PennController,27,0,2V,NULL,Controller-DashedSentence,DashedSentence_pt1,4,Keller,1765896644159,FALSE,7,2,Krimi,V,DA,,,,das Gewehr,11,Findet Judith auf dem Dachboden ein Gewehr?,Nein,85,false,Judith findet im Keller ihres Hauses ein Gewehr.,Any addtional parameters were appended as additional columns
1765897158,24cd9c0aa9b9e63d665a1fdcb03c7e5b,PennController,27,0,2V,NULL,Controller-DashedSentence,DashedSentence_pt1,5,ihres,1765896644159,FALSE,7,2,Krimi,V,DA,,,,das Gewehr,11,Findet Judith auf dem Dachboden ein Gewehr?,Nein,84,false,Judith findet im Keller ihres Hauses ein Gewehr.,Any addtional parameters were appended as additional columns
1765897158,24cd9c0aa9b9e63d665a1fdcb03c7e5b,PennController,27,0,2V,NULL,Controller-DashedSentence,DashedSentence_pt1,6,Hauses,1765896644159,FALSE,7,2,Krimi,V,DA,,,,das Gewehr,11,Findet Judith auf dem Dachboden ein Gewehr?,Nein,83,false,Judith findet im Keller ihres Hauses ein Gewehr.,Any addtional parameters were appended as additional columns
1765897158,24cd9c0aa9b9e63d665a1fdcb03c7e5b,PennController,27,0,2V,NULL,Controller-DashedSentence,DashedSentence_pt1,7,ein,1765896644159,FALSE,7,2,Krimi,V,DA,,,,das Gewehr,11,Findet Judith auf dem Dachboden ein Gewehr?,Nein,85,false,Judith findet im Keller ihres Hauses ein Gewehr.,Any addtional parameters were appended as additional columns
1765897158,24cd9c0aa9b9e63d665a1fdcb03c7e5b,PennController,27,0,2V,NULL,Controller-DashedSentence,DashedSentence_pt1,8,Gewehr.,1765896644159,FALSE,7,2,Krimi,V,DA,,,,das Gewehr,11,Findet Judith auf dem Dachboden ein Gewehr?,Nein,83,false,Judith findet im Keller ihres Hauses ein Gewehr.,Any addtional parameters were appended as additional columns
1765897158,24cd9c0aa9b9e63d665a1fdcb03c7e5b,PennController,27,0,2V,NULL,Controller-DashedSentence,DashedSentence_pt2,1,Ihr,1765896644747,FALSE,7,2,Krimi,V,DA,,,,das Gewehr,11,Findet Judith auf dem Dachboden ein Gewehr?,Nein,83,false,Ihr Mann hat das Gewehr dort gelagert.,Any addtional parameters were appended as additional columns
1765897158,24cd9c0aa9b9e63d665a1fdcb03c7e5b,PennController,27,0,2V,NULL,Controller-DashedSentence,DashedSentence_pt2,2,Mann,1765896644747,FALSE,7,2,Krimi,V,DA,,,,das Gewehr,11,Findet Judith auf dem Dachboden ein Gewehr?,Nein,85,false,Ihr Mann hat das Gewehr dort gelagert.,Any addtional parameters were appended as additional columns
1765897158,24cd9c0aa9b9e63d665a1fdcb03c7e5b,PennController,27,0,2V,NULL,Controller-DashedSentence,DashedSentence_pt2,3,hat,1765896644747,FALSE,7,2,Krimi,V,DA,,,,das Gewehr,11,Findet Judith auf dem Dachboden ein Gewehr?,Nein,84,false,Ihr Mann hat das Gewehr dort gelagert.,Any addtional parameters were appended as additional columns
1765897158,24cd9c0aa9b9e63d665a1fdcb03c7e5b,PennController,27,0,2V,NULL,Controller-DashedSentence,DashedSentence_pt2,4,das Gewehr,1765896644747,FALSE,7,2,Krimi,V,DA,,,,das Gewehr,11,Findet Judith auf dem Dachboden ein Gewehr?,Nein,83,false,Ihr Mann hat das Gewehr dort gelagert.,Any addtional parameters were appended as additional columns
1765897158,24cd9c0aa9b9e63d665a1fdcb03c7e5b,PennController,27,0,2V,NULL,Controller-DashedSentence,DashedSentence_pt2,5,dort,1765896644747,FALSE,7,2,Krimi,V,DA,,,,das Gewehr,11,Findet Judith auf dem Dachboden ein Gewehr?,Nein,83,false,Ihr Mann hat das Gewehr dort gelagert.,Any addtional parameters were appended as additional columns
1765897158,24cd9c0aa9b9e63d665a1fdcb03c7e5b,PennController,27,0,2V,NULL,Controller-DashedSentence,DashedSentence_pt2,6,gelagert.,1765896644747,FALSE,7,2,Krimi,V,DA,,,,das Gewehr,11,Findet Judith auf dem Dachboden ein Gewehr?,Nein,85,false,Ihr Mann hat das Gewehr dort gelagert.,Any addtional parameters were appended as additional columns
# 26. Comments.
1765897158,24cd9c0aa9b9e63d665a1fdcb03c7e5b,PennController,27,0,2V,NULL,Canvas,yes-no-responses,Print,NA,1765896644749,FALSE,7,2,Krimi,V,DA,,,,das Gewehr,11,Findet Judith auf dem Dachboden ein Gewehr?,Nein,NULL
1765897158,24cd9c0aa9b9e63d665a1fdcb03c7e5b,PennController,27,0,2V,NULL,Var,QuestionStartTime,Final,1765896644751,1765896645857,FALSE,7,2,Krimi,V,DA,,,,das Gewehr,11,Findet Judith auf dem Dachboden ein Gewehr?,Nein,Value at the end of the trial
1765897158,24cd9c0aa9b9e63d665a1fdcb03c7e5b,PennController,27,0,2V,NULL,Var,QuestionEndTime,Final,1765896645856,1765896645857,FALSE,7,2,Krimi,V,DA,,,,das Gewehr,11,Findet Judith auf dem Dachboden ein Gewehr?,Nein,Value at the end of the trial
1765897158,24cd9c0aa9b9e63d665a1fdcb03c7e5b,PennController,27,0,2V,NULL,Selector,selection,Selection,nein,1765896645855,FALSE,7,2,Krimi,V,DA,,,,das Gewehr,11,Findet Judith auf dem Dachboden ein Gewehr?,Nein,ja;nein
1765897158,24cd9c0aa9b9e63d665a1fdcb03c7e5b,PennController,27,0,2V,NULL,PennController,27,_Trial_,End,1765896645857,FALSE,7,2,Krimi,V,DA,,,,das Gewehr,11,Findet Judith auf dem Dachboden ein Gewehr?,Nein,NULL
1765897158,24cd9c0aa9b9e63d665a1fdcb03c7e5b,PennController,29,0,2M,NULL,PennController,29,_Trial_,Start,1765896645863,FALSE,18,2,Restaurant,M,IA,Meronymie-basiert,Objekt/Bestandteil // Ereignis/ Episode,das Menü,der Hauptgang,11,,,NULL
# 26. Reading time.
# 27. Newline?.
# 28. Sentence (or sentence MD5).
# 29. Comments.
1765897158,24cd9c0aa9b9e63d665a1fdcb03c7e5b,PennController,29,0,2M,NULL,Controller-DashedSentence,DashedSentence_pt1,1,Emily,1765896647006,FALSE,18,2,Restaurant,M,IA,Meronymie-basiert,Objekt/Bestandteil // Ereignis/ Episode,das Menü,der Hauptgang,11,,,79,false,Emily ist in der Vorbereitung für das Menü.,Any addtional parameters were appended as additional columns
1765897158,24cd9c0aa9b9e63d665a1fdcb03c7e5b,PennController,29,0,2M,NULL,Controller-DashedSentence,DashedSentence_pt1,2,ist,1765896647006,FALSE,18,2,Restaurant,M,IA,Meronymie-basiert,Objekt/Bestandteil // Ereignis/ Episode,das Menü,der Hauptgang,11,,,83,false,Emily ist in der Vorbereitung für das Menü.,Any addtional parameters were appended as additional columns
1765897158,24cd9c0aa9b9e63d665a1fdcb03c7e5b,PennController,29,0,2M,NULL,Controller-DashedSentence,DashedSentence_pt1,3,in,1765896647006,FALSE,18,2,Restaurant,M,IA,Meronymie-basiert,Objekt/Bestandteil // Ereignis/ Episode,das Menü,der Hauptgang,11,,,83,false,Emily ist in der Vorbereitung für das Menü.,Any addtional parameters were appended as additional columns
1765897158,24cd9c0aa9b9e63d665a1fdcb03c7e5b,PennController,29,0,2M,NULL,Controller-DashedSentence,DashedSentence_pt1,4,der,1765896647006,FALSE,18,2,Restaurant,M,IA,Meronymie-basiert,Objekt/Bestandteil // Ereignis/ Episode,das Menü,der Hauptgang,11,,,84,false,Emily ist in der Vorbereitung für das Menü.,Any addtional parameters were appended as additional columns
1765897158,24cd9c0aa9b9e63d665a1fdcb03c7e5b,PennController,29,0,2M,NULL,Controller-DashedSentence,DashedSentence_pt1,5,Vorbereitung,1765896647006,FALSE,18,2,Restaurant,M,IA,Meronymie-basiert,Objekt/Bestandteil // Ereignis/ Episode,das Menü,der Hauptgang,11,,,85,false,Emily ist in der Vorbereitung für das Menü.,Any addtional parameters were appended as additional columns
1765897158,24cd9c0aa9b9e63d665a1fdcb03c7e5b,PennController,29,0,2M,NULL,Controller-DashedSentence,DashedSentence_pt1,6,für,1765896647006,FALSE,18,2,Restaurant,M,IA,Meronymie-basiert,Objekt/Bestandteil // Ereignis/ Episode,das Menü,der Hauptgang,11,,,84,false,Emily ist in der Vorbereitung für das Menü.,Any addtional parameters were appended as additional columns
1765897158,24cd9c0aa9b9e63d665a1fdcb03c7e5b,PennController,29,0,2M,NULL,Controller-DashedSentence,DashedSentence_pt1,7,das,1765896647006,FALSE,18,2,Restaurant,M,IA,Meronymie-basiert,Objekt/Bestandteil // Ereignis/ Episode,das Menü,der Hauptgang,11,,,83,false,Emily ist in der Vorbereitung für das Menü.,Any addtional parameters were appended as additional columns
1765897158,24cd9c0aa9b9e63d665a1fdcb03c7e5b,PennController,29,0,2M,NULL,Controller-DashedSentence,DashedSentence_pt1,8,Menü.,1765896647006,FALSE,18,2,Restaurant,M,IA,Meronymie-basiert,Objekt/Bestandteil // Ereignis/ Episode,das Menü,der Hauptgang,11,,,84,false,Emily ist in der Vorbereitung für das Menü.,Any addtional parameters were appended as additional columns
1765897158,24cd9c0aa9b9e63d665a1fdcb03c7e5b,PennController,29,0,2M,NULL,Controller-DashedSentence,DashedSentence_pt2,1,Sie,1765896647758,FALSE,18,2,Restaurant,M,IA,Meronymie-basiert,Objekt/Bestandteil // Ereignis/ Episode,das Menü,der Hauptgang,11,,,84,false,Sie steckt in den Hauptgang immer sehr viel Arbeit.,Any addtional parameters were appended as additional columns
1765897158,24cd9c0aa9b9e63d665a1fdcb03c7e5b,PennController,29,0,2M,NULL,Controller-DashedSentence,DashedSentence_pt2,2,steckt,1765896647758,FALSE,18,2,Restaurant,M,IA,Meronymie-basiert,Objekt/Bestandteil // Ereignis/ Episode,das Menü,der Hauptgang,11,,,82,false,Sie steckt in den Hauptgang immer sehr viel Arbeit.,Any addtional parameters were appended as additional columns
1765897158,24cd9c0aa9b9e63d665a1fdcb03c7e5b,PennController,29,0,2M,NULL,Controller-DashedSentence,DashedSentence_pt2,3,in,1765896647758,FALSE,18,2,Restaurant,M,IA,Meronymie-basiert,Objekt/Bestandteil // Ereignis/ Episode,das Menü,der Hauptgang,11,,,84,false,Sie steckt in den Hauptgang immer sehr viel Arbeit.,Any addtional parameters were appended as additional columns
1765897158,24cd9c0aa9b9e63d665a1fdcb03c7e5b,PennController,29,0,2M,NULL,Controller-DashedSentence,DashedSentence_pt2,4,den Hauptgang,1765896647758,FALSE,18,2,Restaurant,M,IA,Meronymie-basiert,Objekt/Bestandteil // Ereignis/ Episode,das Menü,der Hauptgang,11,,,84,false,Sie steckt in den Hauptgang immer sehr viel Arbeit.,Any addtional parameters were appended as additional columns
1765897158,24cd9c0aa9b9e63d665a1fdcb03c7e5b,PennController,29,0,2M,NULL,Controller-DashedSentence,DashedSentence_pt2,5,immer,1765896647758,FALSE,18,2,Restaurant,M,IA,Meronymie-basiert,Objekt/Bestandteil // Ereignis/ Episode,das Menü,der Hauptgang,11,,,82,false,Sie steckt in den Hauptgang immer sehr viel Arbeit.,Any addtional parameters were appended as additional columns
1765897158,24cd9c0aa9b9e63d665a1fdcb03c7e5b,PennController,29,0,2M,NULL,Controller-DashedSentence,DashedSentence_pt2,6,sehr,1765896647758,FALSE,18,2,Restaurant,M,IA,Meronymie-basiert,Objekt/Bestandteil // Ereignis/ Episode,das Menü,der Hauptgang,11,,,80,false,Sie steckt in den Hauptgang immer sehr viel Arbeit.,Any addtional parameters were appended as additional columns
1765897158,24cd9c0aa9b9e63d665a1fdcb03c7e5b,PennController,29,0,2M,NULL,Controller-DashedSentence,DashedSentence_pt2,7,viel,1765896647758,FALSE,18,2,Restaurant,M,IA,Meronymie-basiert,Objekt/Bestandteil // Ereignis/ Episode,das Menü,der Hauptgang,11,,,87,false,Sie steckt in den Hauptgang immer sehr viel Arbeit.,Any addtional parameters were appended as additional columns
